File: A10_15keV_10_02.txt
#FORMAT      : EMSA/MAS Spectral Data File
#VERSION     : 1.0
#TITLE       : A10_15keV_10_02
#DATE        : 04-JUL-2024
#TIME        : 10:28
#OWNER       :
#NPOINTS     : 1024.0
#NCOLUMNS    : 1.0
#XUNITS      : keV
#YUNITS      : counts
#DATATYPE    : XY
#XPERCHAN    : 0.02
#OFFSET      : -0.2
#SIGNALTYPE  : EDS
#CHOFFSET    : 10.0
#LIVETIME    : 120.075
#REALTIME    : 122.514
#BEAMKV      : 15.0
#MAGCAM      : 220.0
#XTILTSTGE   : 0.0
#AZIMANGLE   : 0.0
#ELEVANGLE   : 25.5
#XPOSITION mm: -0.1828
#YPOSITION mm: -1.1990
#ZPOSITION mm: 14.6374
##OXINSTPT   : 2
##OXINSTSTROB: 69.77
##OXINSTELEMS: 6,8,16,29,7,15,9
##OXINSTLABEL: 6, 0.277, C K?1_2
##OXINSTLABEL: 8, 0.525, O K?1
##OXINSTLABEL: 16, 2.308, S K?1
##OXINSTLABEL: 16, 2.464, S K?1
##OXINSTLABEL: 29, 8.048, Cu K?1
##OXINSTLABEL: 29, 8.905, Cu K?1
##OXINSTLABEL: 29, 0.930, Cu L?1,2
##OXINSTLABEL: 29, 0.832, Cu L?
##OXINSTLABEL: 29, 0.811, Cu Ll
##OXINSTLABEL: 7, 0.392, N K?1_2
##OXINSTLABEL: 15, 2.014, P K?1
##OXINSTLABEL: 15, 2.139, P K?1
##OXINSTLABEL: 9, 0.677, F K?1_2
#SPECTRUM    : Spectral Data Starts Here
-0.20000, 0.0
-0.18000, 0.0
-0.16000, 0.0
-0.14000, 0.0
-0.12000, 0.0
-0.10000, 3.0
-0.08000, 17.0
-0.06000, 106.0
-0.04000, 516.0
-0.02000, 1864.0
0.00000, 4616.0
0.02000, 7939.0
0.04000, 10058.0
0.06000, 9256.0
0.08000, 6137.0
0.10000, 3287.0
0.12000, 1979.0
0.14000, 1805.0
0.16000, 1748.0
0.18000, 1457.0
0.20000, 1014.0
0.22000, 656.0
0.24000, 492.0
0.26000, 489.0
0.28000, 460.0
0.30000, 355.0
0.32000, 233.0
0.34000, 167.0
0.36000, 173.0
0.38000, 171.0
0.40000, 165.0
0.42000, 182.0
0.44000, 237.0
0.46000, 256.0
0.48000, 299.0
0.50000, 470.0
0.52000, 699.0
0.54000, 913.0
0.56000, 1031.0
0.58000, 960.0
0.60000, 792.0
0.62000, 617.0
0.64000, 519.0
0.66000, 462.0
0.68000, 459.0
0.70000, 455.0
0.72000, 468.0
0.74000, 472.0
0.76000, 495.0
0.78000, 516.0
0.80000, 527.0
0.82000, 527.0
0.84000, 530.0
0.86000, 590.0
0.88000, 612.0
0.90000, 623.0
0.92000, 617.0
0.94000, 659.0
0.96000, 659.0
0.98000, 668.0
1.00000, 714.0
1.02000, 704.0
1.04000, 732.0
1.06000, 781.0
1.08000, 776.0
1.10000, 754.0
1.12000, 788.0
1.14000, 817.0
1.16000, 820.0
1.18000, 810.0
1.20000, 803.0
1.22000, 807.0
1.24000, 834.0
1.26000, 819.0
1.28000, 845.0
1.30000, 871.0
1.32000, 861.0
1.34000, 880.0
1.36000, 843.0
1.38000, 844.0
1.40000, 859.0
1.42000, 868.0
1.44000, 887.0
1.46000, 895.0
1.48000, 868.0
1.50000, 884.0
1.52000, 919.0
1.54000, 912.0
1.56000, 887.0
1.58000, 857.0
1.60000, 866.0
1.62000, 889.0
1.64000, 1015.0
1.66000, 1299.0
1.68000, 1888.0
1.70000, 2744.0
1.72000, 3604.0
1.74000, 4040.0
1.76000, 3783.0
1.78000, 3023.0
1.80000, 2187.0
1.82000, 1523.0
1.84000, 1177.0
1.86000, 1014.0
1.88000, 911.0
1.90000, 891.0
1.92000, 855.0
1.94000, 888.0
1.96000, 1058.0
1.98000, 1230.0
2.00000, 1406.0
2.02000, 1481.0
2.04000, 1394.0
2.06000, 1314.0
2.08000, 1234.0
2.10000, 1092.0
2.12000, 1038.0
2.14000, 1097.0
2.16000, 1304.0
2.18000, 1952.0
2.20000, 3708.0
2.22000, 7662.0
2.24000, 14655.0
2.26000, 24351.0
2.28000, 34046.0
2.30000, 39860.0
2.32000, 39299.0
2.34000, 33170.0
2.36000, 25013.0
2.38000, 17589.0
2.40000, 12596.0
2.42000, 9546.0
2.44000, 7446.0
2.46000, 5930.0
2.48000, 4659.0
2.50000, 3570.0
2.52000, 2543.0
2.54000, 1711.0
2.56000, 1184.0
2.58000, 862.0
2.60000, 673.0
2.62000, 586.0
2.64000, 521.0
2.66000, 472.0
2.68000, 438.0
2.70000, 409.0
2.72000, 375.0
2.74000, 377.0
2.76000, 376.0
2.78000, 369.0
2.80000, 395.0
2.82000, 438.0
2.84000, 473.0
2.86000, 434.0
2.88000, 400.0
2.90000, 386.0
2.92000, 366.0
2.94000, 331.0
2.96000, 312.0
2.98000, 313.0
3.00000, 307.0
3.02000, 314.0
3.04000, 322.0
3.06000, 319.0
3.08000, 317.0
3.10000, 315.0
3.12000, 325.0
3.14000, 328.0
3.16000, 340.0
3.18000, 331.0
3.20000, 324.0
3.22000, 338.0
3.24000, 335.0
3.26000, 327.0
3.28000, 317.0
3.30000, 315.0
3.32000, 316.0
3.34000, 312.0
3.36000, 328.0
3.38000, 343.0
3.40000, 332.0
3.42000, 320.0
3.44000, 311.0
3.46000, 304.0
3.48000, 298.0
3.50000, 298.0
3.52000, 303.0
3.54000, 302.0
3.56000, 316.0
3.58000, 305.0
3.60000, 307.0
3.62000, 292.0
3.64000, 298.0
3.66000, 297.0
3.68000, 287.0
3.70000, 303.0
3.72000, 335.0
3.74000, 315.0
3.76000, 281.0
3.78000, 286.0
3.80000, 314.0
3.82000, 321.0
3.84000, 305.0
3.86000, 304.0
3.88000, 301.0
3.90000, 314.0
3.92000, 316.0
3.94000, 318.0
3.96000, 317.0
3.98000, 306.0
4.00000, 297.0
4.02000, 292.0
4.04000, 280.0
4.06000, 292.0
4.08000, 294.0
4.10000, 291.0
4.12000, 296.0
4.14000, 297.0
4.16000, 299.0
4.18000, 295.0
4.20000, 307.0
4.22000, 317.0
4.24000, 305.0
4.26000, 291.0
4.28000, 298.0
4.30000, 306.0
4.32000, 305.0
4.34000, 300.0
4.36000, 293.0
4.38000, 289.0
4.40000, 298.0
4.42000, 295.0
4.44000, 286.0
4.46000, 289.0
4.48000, 289.0
4.50000, 270.0
4.52000, 269.0
4.54000, 264.0
4.56000, 293.0
4.58000, 302.0
4.60000, 295.0
4.62000, 306.0
4.64000, 295.0
4.66000, 305.0
4.68000, 282.0
4.70000, 262.0
4.72000, 287.0
4.74000, 289.0
4.76000, 264.0
4.78000, 255.0
4.80000, 276.0
4.82000, 284.0
4.84000, 272.0
4.86000, 258.0
4.88000, 263.0
4.90000, 256.0
4.92000, 246.0
4.94000, 250.0
4.96000, 230.0
4.98000, 235.0
5.00000, 237.0
5.02000, 218.0
5.04000, 235.0
5.06000, 239.0
5.08000, 231.0
5.10000, 227.0
5.12000, 227.0
5.14000, 244.0
5.16000, 256.0
5.18000, 233.0
5.20000, 220.0
5.22000, 224.0
5.24000, 225.0
5.26000, 224.0
5.28000, 233.0
5.30000, 233.0
5.32000, 236.0
5.34000, 235.0
5.36000, 226.0
5.38000, 216.0
5.40000, 226.0
5.42000, 243.0
5.44000, 226.0
5.46000, 209.0
5.48000, 199.0
5.50000, 212.0
5.52000, 225.0
5.54000, 207.0
5.56000, 195.0
5.58000, 207.0
5.60000, 209.0
5.62000, 204.0
5.64000, 210.0
5.66000, 221.0
5.68000, 216.0
5.70000, 202.0
5.72000, 208.0
5.74000, 211.0
5.76000, 201.0
5.78000, 201.0
5.80000, 213.0
5.82000, 205.0
5.84000, 196.0
5.86000, 194.0
5.88000, 197.0
5.90000, 198.0
5.92000, 187.0
5.94000, 206.0
5.96000, 207.0
5.98000, 189.0
6.00000, 208.0
6.02000, 205.0
6.04000, 187.0
6.06000, 194.0
6.08000, 180.0
6.10000, 187.0
6.12000, 196.0
6.14000, 184.0
6.16000, 189.0
6.18000, 180.0
6.20000, 187.0
6.22000, 197.0
6.24000, 180.0
6.26000, 176.0
6.28000, 163.0
6.30000, 155.0
6.32000, 175.0
6.34000, 165.0
6.36000, 147.0
6.38000, 167.0
6.40000, 187.0
6.42000, 185.0
6.44000, 173.0
6.46000, 172.0
6.48000, 172.0
6.50000, 172.0
6.52000, 175.0
6.54000, 174.0
6.56000, 162.0
6.58000, 160.0
6.60000, 168.0
6.62000, 172.0
6.64000, 174.0
6.66000, 165.0
6.68000, 154.0
6.70000, 155.0
6.72000, 167.0
6.74000, 165.0
6.76000, 156.0
6.78000, 161.0
6.80000, 175.0
6.82000, 177.0
6.84000, 160.0
6.86000, 144.0
6.88000, 155.0
6.90000, 149.0
6.92000, 143.0
6.94000, 154.0
6.96000, 164.0
6.98000, 172.0
7.00000, 166.0
7.02000, 163.0
7.04000, 162.0
7.06000, 157.0
7.08000, 154.0
7.10000, 149.0
7.12000, 150.0
7.14000, 141.0
7.16000, 141.0
7.18000, 155.0
7.20000, 148.0
7.22000, 140.0
7.24000, 147.0
7.26000, 140.0
7.28000, 138.0
7.30000, 132.0
7.32000, 123.0
7.34000, 137.0
7.36000, 133.0
7.38000, 125.0
7.40000, 136.0
7.42000, 152.0
7.44000, 147.0
7.46000, 138.0
7.48000, 133.0
7.50000, 135.0
7.52000, 131.0
7.54000, 126.0
7.56000, 137.0
7.58000, 136.0
7.60000, 124.0
7.62000, 127.0
7.64000, 132.0
7.66000, 137.0
7.68000, 133.0
7.70000, 123.0
7.72000, 128.0
7.74000, 123.0
7.76000, 119.0
7.78000, 127.0
7.80000, 136.0
7.82000, 133.0
7.84000, 123.0
7.86000, 129.0
7.88000, 129.0
7.90000, 119.0
7.92000, 123.0
7.94000, 124.0
7.96000, 122.0
7.98000, 125.0
8.00000, 122.0
8.02000, 114.0
8.04000, 110.0
8.06000, 111.0
8.08000, 116.0
8.10000, 120.0
8.12000, 117.0
8.14000, 118.0
8.16000, 116.0
8.18000, 107.0
8.20000, 108.0
8.22000, 114.0
8.24000, 118.0
8.26000, 117.0
8.28000, 109.0
8.30000, 109.0
8.32000, 111.0
8.34000, 112.0
8.36000, 121.0
8.38000, 117.0
8.40000, 110.0
8.42000, 105.0
8.44000, 115.0
8.46000, 115.0
8.48000, 101.0
8.50000, 92.0
8.52000, 98.0
8.54000, 102.0
8.56000, 110.0
8.58000, 107.0
8.60000, 104.0
8.62000, 110.0
8.64000, 99.0
8.66000, 97.0
8.68000, 106.0
8.70000, 113.0
8.72000, 110.0
8.74000, 107.0
8.76000, 101.0
8.78000, 101.0
8.80000, 96.0
8.82000, 97.0
8.84000, 102.0
8.86000, 92.0
8.88000, 96.0
8.90000, 102.0
8.92000, 100.0
8.94000, 99.0
8.96000, 97.0
8.98000, 92.0
9.00000, 86.0
9.02000, 94.0
9.04000, 106.0
9.06000, 97.0
9.08000, 88.0
9.10000, 94.0
9.12000, 92.0
9.14000, 85.0
9.16000, 89.0
9.18000, 85.0
9.20000, 84.0
9.22000, 89.0
9.24000, 89.0
9.26000, 95.0
9.28000, 96.0
9.30000, 91.0
9.32000, 90.0
9.34000, 91.0
9.36000, 92.0
9.38000, 88.0
9.40000, 85.0
9.42000, 92.0
9.44000, 94.0
9.46000, 93.0
9.48000, 88.0
9.50000, 74.0
9.52000, 74.0
9.54000, 82.0
9.56000, 81.0
9.58000, 78.0
9.60000, 77.0
9.62000, 69.0
9.64000, 77.0
9.66000, 88.0
9.68000, 82.0
9.70000, 79.0
9.72000, 76.0
9.74000, 74.0
9.76000, 76.0
9.78000, 79.0
9.80000, 84.0
9.82000, 81.0
9.84000, 73.0
9.86000, 82.0
9.88000, 81.0
9.90000, 69.0
9.92000, 73.0
9.94000, 78.0
9.96000, 84.0
9.98000, 82.0
10.00000, 87.0
10.02000, 79.0
10.04000, 65.0
10.06000, 71.0
10.08000, 72.0
10.10000, 74.0
10.12000, 76.0
10.14000, 70.0
10.16000, 66.0
10.18000, 64.0
10.20000, 63.0
10.22000, 62.0
10.24000, 68.0
10.26000, 70.0
10.28000, 69.0
10.30000, 63.0
10.32000, 67.0
10.34000, 73.0
10.36000, 63.0
10.38000, 59.0
10.40000, 67.0
10.42000, 69.0
10.44000, 61.0
10.46000, 64.0
10.48000, 60.0
10.50000, 57.0
10.52000, 55.0
10.54000, 61.0
10.56000, 69.0
10.58000, 62.0
10.60000, 62.0
10.62000, 62.0
10.64000, 58.0
10.66000, 62.0
10.68000, 61.0
10.70000, 56.0
10.72000, 49.0
10.74000, 53.0
10.76000, 61.0
10.78000, 62.0
10.80000, 66.0
10.82000, 66.0
10.84000, 59.0
10.86000, 56.0
10.88000, 63.0
10.90000, 62.0
10.92000, 61.0
10.94000, 57.0
10.96000, 56.0
10.98000, 58.0
11.00000, 58.0
11.02000, 52.0
11.04000, 48.0
11.06000, 54.0
11.08000, 53.0
11.10000, 49.0
11.12000, 53.0
11.14000, 48.0
11.16000, 45.0
11.18000, 46.0
11.20000, 50.0
11.22000, 52.0
11.24000, 52.0
11.26000, 51.0
11.28000, 54.0
11.30000, 46.0
11.32000, 45.0
11.34000, 49.0
11.36000, 52.0
11.38000, 52.0
11.40000, 48.0
11.42000, 34.0
11.44000, 37.0
11.46000, 48.0
11.48000, 43.0
11.50000, 39.0
11.52000, 40.0
11.54000, 46.0
11.56000, 49.0
11.58000, 49.0
11.60000, 48.0
11.62000, 44.0
11.64000, 43.0
11.66000, 44.0
11.68000, 49.0
11.70000, 47.0
11.72000, 44.0
11.74000, 48.0
11.76000, 55.0
11.78000, 52.0
11.80000, 40.0
11.82000, 43.0
11.84000, 37.0
11.86000, 32.0
11.88000, 41.0
11.90000, 41.0
11.92000, 36.0
11.94000, 32.0
11.96000, 34.0
11.98000, 34.0
12.00000, 34.0
12.02000, 26.0
12.04000, 26.0
12.06000, 33.0
12.08000, 40.0
12.10000, 42.0
12.12000, 41.0
12.14000, 37.0
12.16000, 42.0
12.18000, 43.0
12.20000, 31.0
12.22000, 29.0
12.24000, 32.0
12.26000, 33.0
12.28000, 26.0
12.30000, 28.0
12.32000, 27.0
12.34000, 24.0
12.36000, 29.0
12.38000, 35.0
12.40000, 33.0
12.42000, 34.0
12.44000, 33.0
12.46000, 31.0
12.48000, 34.0
12.50000, 36.0
12.52000, 35.0
12.54000, 31.0
12.56000, 32.0
12.58000, 35.0
12.60000, 35.0
12.62000, 30.0
12.64000, 27.0
12.66000, 27.0
12.68000, 24.0
12.70000, 22.0
12.72000, 23.0
12.74000, 23.0
12.76000, 24.0
12.78000, 23.0
12.80000, 28.0
12.82000, 27.0
12.84000, 23.0
12.86000, 22.0
12.88000, 23.0
12.90000, 29.0
12.92000, 21.0
12.94000, 16.0
12.96000, 23.0
12.98000, 26.0
13.00000, 25.0
13.02000, 24.0
13.04000, 24.0
13.06000, 20.0
13.08000, 20.0
13.10000, 21.0
13.12000, 21.0
13.14000, 20.0
13.16000, 16.0
13.18000, 16.0
13.20000, 20.0
13.22000, 22.0
13.24000, 21.0
13.26000, 19.0
13.28000, 19.0
13.30000, 17.0
13.32000, 15.0
13.34000, 16.0
13.36000, 16.0
13.38000, 19.0
13.40000, 20.0
13.42000, 21.0
13.44000, 21.0
13.46000, 12.0
13.48000, 15.0
13.50000, 20.0
13.52000, 18.0
13.54000, 15.0
13.56000, 17.0
13.58000, 15.0
13.60000, 18.0
13.62000, 18.0
13.64000, 16.0
13.66000, 10.0
13.68000, 14.0
13.70000, 18.0
13.72000, 15.0
13.74000, 17.0
13.76000, 15.0
13.78000, 13.0
13.80000, 11.0
13.82000, 16.0
13.84000, 17.0
13.86000, 14.0
13.88000, 11.0
13.90000, 10.0
13.92000, 12.0
13.94000, 15.0
13.96000, 10.0
13.98000, 8.0
14.00000, 5.0
14.02000, 7.0
14.04000, 10.0
14.06000, 11.0
14.08000, 7.0
14.10000, 7.0
14.12000, 9.0
14.14000, 11.0
14.16000, 9.0
14.18000, 5.0
14.20000, 6.0
14.22000, 5.0
14.24000, 7.0
14.26000, 9.0
14.28000, 7.0
14.30000, 6.0
14.32000, 7.0
14.34000, 8.0
14.36000, 7.0
14.38000, 5.0
14.40000, 7.0
14.42000, 4.0
14.44000, 5.0
14.46000, 7.0
14.48000, 6.0
14.50000, 2.0
14.52000, 4.0
14.54000, 2.0
14.56000, 3.0
14.58000, 4.0
14.60000, 3.0
14.62000, 5.0
14.64000, 5.0
14.66000, 5.0
14.68000, 6.0
14.70000, 4.0
14.72000, 2.0
14.74000, 2.0
14.76000, 4.0
14.78000, 4.0
14.80000, 3.0
14.82000, 3.0
14.84000, 3.0
14.86000, 2.0
14.88000, 0.0
14.90000, 0.0
14.92000, 1.0
14.94000, 1.0
14.96000, 0.0
14.98000, 0.0
15.00000, 0.0
15.02000, 1.0
15.04000, 0.0
15.06000, 0.0
15.08000, 0.0
15.10000, 1.0
15.12000, 0.0
15.14000, 1.0
15.16000, 1.0
15.18000, 0.0
15.20000, 0.0
15.22000, 0.0
15.24000, 0.0
15.26000, 0.0
15.28000, 0.0
15.30000, 0.0
15.32000, 0.0
15.34000, 0.0
15.36000, 0.0
15.38000, 0.0
15.40000, 0.0
15.42000, 1.0
15.44000, 2.0
15.46000, 1.0
15.48000, 0.0
15.50000, 0.0
15.52000, 0.0
15.54000, 0.0
15.56000, 1.0
15.58000, 0.0
15.60000, 0.0
15.62000, 1.0
15.64000, 0.0
15.66000, 1.0
15.68000, 1.0
15.70000, 1.0
15.72000, 0.0
15.74000, 0.0
15.76000, 0.0
15.78000, 0.0
15.80000, 0.0
15.82000, 0.0
15.84000, 0.0
15.86000, 0.0
15.88000, 0.0
15.90000, 0.0
15.92000, 0.0
15.94000, 0.0
15.96000, 0.0
15.98000, 0.0
16.00000, 0.0
16.02000, 0.0
16.04000, 0.0
16.06000, 0.0
16.08000, 0.0
16.10000, 0.0
16.12000, 0.0
16.14000, 0.0
16.16000, 0.0
16.18000, 0.0
16.20000, 0.0
16.22000, 0.0
16.24000, 0.0
16.26000, 1.0
16.28000, 0.0
16.30000, 0.0
16.32000, 0.0
16.34000, 0.0
16.36000, 0.0
16.38000, 0.0
16.40000, 0.0
16.42000, 0.0
16.44000, 0.0
16.46000, 0.0
16.48000, 0.0
16.50000, 0.0
16.52000, 0.0
16.54000, 0.0
16.56000, 0.0
16.58000, 0.0
16.60000, 1.0
16.62000, 0.0
16.64000, 0.0
16.66000, 0.0
16.68000, 0.0
16.70000, 0.0
16.72000, 0.0
16.74000, 0.0
16.76000, 0.0
16.78000, 0.0
16.80000, 0.0
16.82000, 0.0
16.84000, 0.0
16.86000, 0.0
16.88000, 0.0
16.90000, 0.0
16.92000, 0.0
16.94000, 0.0
16.96000, 0.0
16.98000, 0.0
17.00000, 0.0
17.02000, 0.0
17.04000, 0.0
17.06000, 0.0
17.08000, 0.0
17.10000, 0.0
17.12000, 0.0
17.14000, 0.0
17.16000, 0.0
17.18000, 0.0
17.20000, 0.0
17.22000, 0.0
17.24000, 0.0
17.26000, 0.0
17.28000, 0.0
17.30000, 0.0
17.32000, 0.0
17.34000, 0.0
17.36000, 0.0
17.38000, 0.0
17.40000, 0.0
17.42000, 0.0
17.44000, 0.0
17.46000, 0.0
17.48000, 0.0
17.50000, 0.0
17.52000, 0.0
17.54000, 0.0
17.56000, 0.0
17.58000, 0.0
17.60000, 0.0
17.62000, 0.0
17.64000, 0.0
17.66000, 0.0
17.68000, 0.0
17.70000, 0.0
17.72000, 0.0
17.74000, 0.0
17.76000, 0.0
17.78000, 0.0
17.80000, 0.0
17.82000, 0.0
17.84000, 0.0
17.86000, 0.0
17.88000, 0.0
17.90000, 1.0
17.92000, 0.0
17.94000, 0.0
17.96000, 0.0
17.98000, 0.0
18.00000, 0.0
18.02000, 0.0
18.04000, 0.0
18.06000, 0.0
18.08000, 0.0
18.10000, 0.0
18.12000, 0.0
18.14000, 0.0
18.16000, 0.0
18.18000, 0.0
18.20000, 0.0
18.22000, 0.0
18.24000, 0.0
18.26000, 0.0
18.28000, 0.0
18.30000, 0.0
18.32000, 0.0
18.34000, 0.0
18.36000, 0.0
18.38000, 0.0
18.40000, 1.0
18.42000, 0.0
18.44000, 0.0
18.46000, 0.0
18.48000, 0.0
18.50000, 0.0
18.52000, 0.0
18.54000, 0.0
18.56000, 0.0
18.58000, 0.0
18.60000, 0.0
18.62000, 0.0
18.64000, 0.0
18.66000, 0.0
18.68000, 0.0
18.70000, 0.0
18.72000, 0.0
18.74000, 0.0
18.76000, 0.0
18.78000, 0.0
18.80000, 0.0
18.82000, 0.0
18.84000, 0.0
18.86000, 0.0
18.88000, 0.0
18.90000, 0.0
18.92000, 0.0
18.94000, 0.0
18.96000, 0.0
18.98000, 0.0
19.00000, 0.0
19.02000, 0.0
19.04000, 0.0
19.06000, 0.0
19.08000, 0.0
19.10000, 0.0
19.12000, 0.0
19.14000, 0.0
19.16000, 0.0
19.18000, 0.0
19.20000, 0.0
19.22000, 0.0
19.24000, 0.0
19.26000, 0.0
19.28000, 0.0
19.30000, 0.0
19.32000, 0.0
19.34000, 0.0
19.36000, 0.0
19.38000, 0.0
19.40000, 0.0
19.42000, 0.0
19.44000, 0.0
19.46000, 0.0
19.48000, 0.0
19.50000, 0.0
19.52000, 0.0
19.54000, 0.0
19.56000, 0.0
19.58000, 0.0
19.60000, 0.0
19.62000, 0.0
19.64000, 0.0
19.66000, 0.0
19.68000, 0.0
19.70000, 0.0
19.72000, 0.0
19.74000, 0.0
19.76000, 0.0
19.78000, 0.0
19.80000, 0.0
19.82000, 0.0
19.84000, 0.0
19.86000, 0.0
19.88000, 0.0
19.90000, 0.0
19.92000, 0.0
19.94000, 0.0
19.96000, 0.0
19.98000, 0.0
20.00000, 0.0
20.02000, 0.0
20.04000, 0.0
20.06000, 0.0
20.08000, 0.0
20.10000, 0.0
20.12000, 0.0
20.14000, 0.0
20.16000, 0.0
20.18000, 0.0
20.20000, 0.0
20.22000, 0.0
20.24000, 0.0
20.26000, 0.0
#ENDOFDATA   :