File: C10_15keV_10.1.txt
#FORMAT      : EMSA/MAS Spectral Data File
#VERSION     : 1.0
#TITLE       : C10_15keV_10.1
#DATE        : 04-JUL-2024
#TIME        : 09:11
#OWNER       :
#NPOINTS     : 1024.0
#NCOLUMNS    : 1.0
#XUNITS      : keV
#YUNITS      : counts
#DATATYPE    : XY
#XPERCHAN    : 0.02
#OFFSET      : -0.2
#SIGNALTYPE  : EDS
#CHOFFSET    : 10.0
#LIVETIME    : 120.29
#REALTIME    : 122.715
#BEAMKV      : 15.0
#MAGCAM      : 950.0
#XTILTSTGE   : 0.0
#AZIMANGLE   : 0.0
#ELEVANGLE   : 25.5
#XPOSITION mm: 0.1488
#YPOSITION mm: -0.9268
#ZPOSITION mm: 14.7047
##OXINSTPT   : 2
##OXINSTSTROB: 69.68
##OXINSTELEMS: 6,8,16,29,7,15,9
##OXINSTLABEL: 6, 0.277, C K?1_2
##OXINSTLABEL: 8, 0.525, O K?1
##OXINSTLABEL: 16, 2.308, S K?1
##OXINSTLABEL: 16, 2.464, S K?1
##OXINSTLABEL: 29, 8.048, Cu K?1
##OXINSTLABEL: 29, 8.905, Cu K?1
##OXINSTLABEL: 29, 0.930, Cu L?1,2
##OXINSTLABEL: 29, 0.832, Cu L?
##OXINSTLABEL: 29, 0.811, Cu Ll
##OXINSTLABEL: 7, 0.392, N K?1_2
##OXINSTLABEL: 15, 2.014, P K?1
##OXINSTLABEL: 15, 2.139, P K?1
##OXINSTLABEL: 9, 0.677, F K?1_2
#SPECTRUM    : Spectral Data Starts Here
-0.20000, 0.0
-0.18000, 0.0
-0.16000, 0.0
-0.14000, 0.0
-0.12000, 0.0
-0.10000, 1.0
-0.08000, 10.0
-0.06000, 98.0
-0.04000, 518.0
-0.02000, 1875.0
0.00000, 4701.0
0.02000, 8157.0
0.04000, 10233.0
0.06000, 9235.0
0.08000, 6047.0
0.10000, 2882.0
0.12000, 1152.0
0.14000, 650.0
0.16000, 635.0
0.18000, 607.0
0.20000, 552.0
0.22000, 587.0
0.24000, 788.0
0.26000, 1028.0
0.28000, 1066.0
0.30000, 822.0
0.32000, 534.0
0.34000, 303.0
0.36000, 189.0
0.38000, 196.0
0.40000, 218.0
0.42000, 266.0
0.44000, 416.0
0.46000, 825.0
0.48000, 1528.0
0.50000, 2358.0
0.52000, 2847.0
0.54000, 2544.0
0.56000, 1752.0
0.58000, 993.0
0.60000, 491.0
0.62000, 283.0
0.64000, 220.0
0.66000, 216.0
0.68000, 251.0
0.70000, 260.0
0.72000, 279.0
0.74000, 313.0
0.76000, 323.0
0.78000, 335.0
0.80000, 348.0
0.82000, 368.0
0.84000, 386.0
0.86000, 427.0
0.88000, 447.0
0.90000, 430.0
0.92000, 436.0
0.94000, 494.0
0.96000, 492.0
0.98000, 500.0
1.00000, 517.0
1.02000, 518.0
1.04000, 515.0
1.06000, 560.0
1.08000, 586.0
1.10000, 581.0
1.12000, 557.0
1.14000, 569.0
1.16000, 571.0
1.18000, 565.0
1.20000, 576.0
1.22000, 620.0
1.24000, 641.0
1.26000, 637.0
1.28000, 682.0
1.30000, 685.0
1.32000, 669.0
1.34000, 671.0
1.36000, 670.0
1.38000, 669.0
1.40000, 680.0
1.42000, 709.0
1.44000, 696.0
1.46000, 710.0
1.48000, 780.0
1.50000, 817.0
1.52000, 821.0
1.54000, 848.0
1.56000, 869.0
1.58000, 864.0
1.60000, 1010.0
1.62000, 1641.0
1.64000, 3760.0
1.66000, 9150.0
1.68000, 19749.0
1.70000, 35225.0
1.72000, 50521.0
1.74000, 58230.0
1.76000, 53696.0
1.78000, 39847.0
1.80000, 24544.0
1.82000, 13260.0
1.84000, 6794.0
1.86000, 3571.0
1.88000, 2005.0
1.90000, 1200.0
1.92000, 688.0
1.94000, 416.0
1.96000, 355.0
1.98000, 343.0
2.00000, 354.0
2.02000, 361.0
2.04000, 358.0
2.06000, 337.0
2.08000, 322.0
2.10000, 314.0
2.12000, 314.0
2.14000, 309.0
2.16000, 314.0
2.18000, 372.0
2.20000, 578.0
2.22000, 915.0
2.24000, 1530.0
2.26000, 2410.0
2.28000, 3374.0
2.30000, 4020.0
2.32000, 3960.0
2.34000, 3355.0
2.36000, 2481.0
2.38000, 1782.0
2.40000, 1388.0
2.42000, 1111.0
2.44000, 902.0
2.46000, 758.0
2.48000, 657.0
2.50000, 547.0
2.52000, 451.0
2.54000, 369.0
2.56000, 328.0
2.58000, 295.0
2.60000, 275.0
2.62000, 274.0
2.64000, 267.0
2.66000, 261.0
2.68000, 237.0
2.70000, 222.0
2.72000, 235.0
2.74000, 240.0
2.76000, 241.0
2.78000, 224.0
2.80000, 227.0
2.82000, 265.0
2.84000, 261.0
2.86000, 239.0
2.88000, 238.0
2.90000, 249.0
2.92000, 234.0
2.94000, 227.0
2.96000, 241.0
2.98000, 226.0
3.00000, 216.0
3.02000, 236.0
3.04000, 231.0
3.06000, 227.0
3.08000, 239.0
3.10000, 239.0
3.12000, 232.0
3.14000, 221.0
3.16000, 225.0
3.18000, 222.0
3.20000, 204.0
3.22000, 211.0
3.24000, 234.0
3.26000, 239.0
3.28000, 223.0
3.30000, 215.0
3.32000, 225.0
3.34000, 231.0
3.36000, 228.0
3.38000, 211.0
3.40000, 222.0
3.42000, 249.0
3.44000, 248.0
3.46000, 244.0
3.48000, 270.0
3.50000, 267.0
3.52000, 238.0
3.54000, 229.0
3.56000, 231.0
3.58000, 216.0
3.60000, 211.0
3.62000, 207.0
3.64000, 187.0
3.66000, 192.0
3.68000, 204.0
3.70000, 207.0
3.72000, 216.0
3.74000, 208.0
3.76000, 191.0
3.78000, 180.0
3.80000, 178.0
3.82000, 182.0
3.84000, 191.0
3.86000, 189.0
3.88000, 189.0
3.90000, 193.0
3.92000, 176.0
3.94000, 177.0
3.96000, 185.0
3.98000, 190.0
4.00000, 187.0
4.02000, 196.0
4.04000, 186.0
4.06000, 170.0
4.08000, 169.0
4.10000, 172.0
4.12000, 182.0
4.14000, 177.0
4.16000, 175.0
4.18000, 168.0
4.20000, 165.0
4.22000, 167.0
4.24000, 160.0
4.26000, 158.0
4.28000, 161.0
4.30000, 160.0
4.32000, 162.0
4.34000, 165.0
4.36000, 164.0
4.38000, 168.0
4.40000, 174.0
4.42000, 159.0
4.44000, 165.0
4.46000, 171.0
4.48000, 165.0
4.50000, 155.0
4.52000, 155.0
4.54000, 164.0
4.56000, 151.0
4.58000, 150.0
4.60000, 148.0
4.62000, 148.0
4.64000, 161.0
4.66000, 154.0
4.68000, 136.0
4.70000, 144.0
4.72000, 159.0
4.74000, 148.0
4.76000, 153.0
4.78000, 153.0
4.80000, 145.0
4.82000, 145.0
4.84000, 145.0
4.86000, 141.0
4.88000, 141.0
4.90000, 146.0
4.92000, 141.0
4.94000, 136.0
4.96000, 137.0
4.98000, 132.0
5.00000, 132.0
5.02000, 138.0
5.04000, 142.0
5.06000, 142.0
5.08000, 150.0
5.10000, 154.0
5.12000, 140.0
5.14000, 130.0
5.16000, 132.0
5.18000, 125.0
5.20000, 134.0
5.22000, 131.0
5.24000, 117.0
5.26000, 125.0
5.28000, 127.0
5.30000, 127.0
5.32000, 115.0
5.34000, 102.0
5.36000, 123.0
5.38000, 133.0
5.40000, 125.0
5.42000, 114.0
5.44000, 120.0
5.46000, 129.0
5.48000, 132.0
5.50000, 118.0
5.52000, 111.0
5.54000, 116.0
5.56000, 117.0
5.58000, 115.0
5.60000, 108.0
5.62000, 119.0
5.64000, 125.0
5.66000, 118.0
5.68000, 120.0
5.70000, 116.0
5.72000, 101.0
5.74000, 104.0
5.76000, 97.0
5.78000, 90.0
5.80000, 100.0
5.82000, 98.0
5.84000, 101.0
5.86000, 101.0
5.88000, 100.0
5.90000, 106.0
5.92000, 107.0
5.94000, 103.0
5.96000, 98.0
5.98000, 110.0
6.00000, 133.0
6.02000, 123.0
6.04000, 103.0
6.06000, 100.0
6.08000, 89.0
6.10000, 86.0
6.12000, 94.0
6.14000, 89.0
6.16000, 78.0
6.18000, 93.0
6.20000, 96.0
6.22000, 84.0
6.24000, 88.0
6.26000, 98.0
6.28000, 104.0
6.30000, 94.0
6.32000, 86.0
6.34000, 86.0
6.36000, 85.0
6.38000, 84.0
6.40000, 88.0
6.42000, 92.0
6.44000, 94.0
6.46000, 97.0
6.48000, 91.0
6.50000, 84.0
6.52000, 79.0
6.54000, 81.0
6.56000, 88.0
6.58000, 88.0
6.60000, 88.0
6.62000, 84.0
6.64000, 80.0
6.66000, 86.0
6.68000, 83.0
6.70000, 82.0
6.72000, 92.0
6.74000, 85.0
6.76000, 78.0
6.78000, 80.0
6.80000, 76.0
6.82000, 70.0
6.84000, 77.0
6.86000, 78.0
6.88000, 67.0
6.90000, 75.0
6.92000, 82.0
6.94000, 82.0
6.96000, 80.0
6.98000, 71.0
7.00000, 70.0
7.02000, 72.0
7.04000, 73.0
7.06000, 75.0
7.08000, 75.0
7.10000, 76.0
7.12000, 81.0
7.14000, 76.0
7.16000, 65.0
7.18000, 64.0
7.20000, 69.0
7.22000, 73.0
7.24000, 72.0
7.26000, 79.0
7.28000, 79.0
7.30000, 69.0
7.32000, 66.0
7.34000, 68.0
7.36000, 63.0
7.38000, 62.0
7.40000, 61.0
7.42000, 70.0
7.44000, 79.0
7.46000, 74.0
7.48000, 66.0
7.50000, 71.0
7.52000, 72.0
7.54000, 61.0
7.56000, 56.0
7.58000, 54.0
7.60000, 59.0
7.62000, 57.0
7.64000, 56.0
7.66000, 58.0
7.68000, 61.0
7.70000, 64.0
7.72000, 66.0
7.74000, 58.0
7.76000, 58.0
7.78000, 62.0
7.80000, 55.0
7.82000, 56.0
7.84000, 59.0
7.86000, 60.0
7.88000, 58.0
7.90000, 61.0
7.92000, 68.0
7.94000, 66.0
7.96000, 62.0
7.98000, 57.0
8.00000, 54.0
8.02000, 55.0
8.04000, 51.0
8.06000, 51.0
8.08000, 54.0
8.10000, 50.0
8.12000, 55.0
8.14000, 54.0
8.16000, 45.0
8.18000, 52.0
8.20000, 56.0
8.22000, 46.0
8.24000, 49.0
8.26000, 55.0
8.28000, 57.0
8.30000, 54.0
8.32000, 52.0
8.34000, 57.0
8.36000, 62.0
8.38000, 57.0
8.40000, 53.0
8.42000, 57.0
8.44000, 56.0
8.46000, 57.0
8.48000, 50.0
8.50000, 49.0
8.52000, 51.0
8.54000, 52.0
8.56000, 48.0
8.58000, 39.0
8.60000, 41.0
8.62000, 49.0
8.64000, 46.0
8.66000, 44.0
8.68000, 43.0
8.70000, 47.0
8.72000, 49.0
8.74000, 51.0
8.76000, 52.0
8.78000, 47.0
8.80000, 52.0
8.82000, 54.0
8.84000, 50.0
8.86000, 49.0
8.88000, 50.0
8.90000, 50.0
8.92000, 46.0
8.94000, 43.0
8.96000, 42.0
8.98000, 43.0
9.00000, 43.0
9.02000, 41.0
9.04000, 42.0
9.06000, 47.0
9.08000, 53.0
9.10000, 48.0
9.12000, 46.0
9.14000, 44.0
9.16000, 40.0
9.18000, 43.0
9.20000, 43.0
9.22000, 34.0
9.24000, 44.0
9.26000, 56.0
9.28000, 46.0
9.30000, 41.0
9.32000, 43.0
9.34000, 42.0
9.36000, 40.0
9.38000, 44.0
9.40000, 38.0
9.42000, 38.0
9.44000, 43.0
9.46000, 34.0
9.48000, 29.0
9.50000, 32.0
9.52000, 35.0
9.54000, 37.0
9.56000, 36.0
9.58000, 40.0
9.60000, 43.0
9.62000, 42.0
9.64000, 39.0
9.66000, 38.0
9.68000, 42.0
9.70000, 43.0
9.72000, 34.0
9.74000, 31.0
9.76000, 38.0
9.78000, 35.0
9.80000, 38.0
9.82000, 37.0
9.84000, 29.0
9.86000, 29.0
9.88000, 27.0
9.90000, 31.0
9.92000, 29.0
9.94000, 29.0
9.96000, 33.0
9.98000, 37.0
10.00000, 41.0
10.02000, 37.0
10.04000, 29.0
10.06000, 30.0
10.08000, 29.0
10.10000, 29.0
10.12000, 27.0
10.14000, 24.0
10.16000, 21.0
10.18000, 24.0
10.20000, 32.0
10.22000, 30.0
10.24000, 31.0
10.26000, 32.0
10.28000, 29.0
10.30000, 31.0
10.32000, 26.0
10.34000, 27.0
10.36000, 35.0
10.38000, 28.0
10.40000, 21.0
10.42000, 24.0
10.44000, 23.0
10.46000, 19.0
10.48000, 17.0
10.50000, 22.0
10.52000, 26.0
10.54000, 27.0
10.56000, 26.0
10.58000, 29.0
10.60000, 32.0
10.62000, 27.0
10.64000, 28.0
10.66000, 26.0
10.68000, 23.0
10.70000, 26.0
10.72000, 25.0
10.74000, 22.0
10.76000, 21.0
10.78000, 30.0
10.80000, 28.0
10.82000, 25.0
10.84000, 26.0
10.86000, 20.0
10.88000, 17.0
10.90000, 17.0
10.92000, 16.0
10.94000, 17.0
10.96000, 18.0
10.98000, 22.0
11.00000, 24.0
11.02000, 22.0
11.04000, 24.0
11.06000, 23.0
11.08000, 22.0
11.10000, 19.0
11.12000, 21.0
11.14000, 24.0
11.16000, 22.0
11.18000, 23.0
11.20000, 23.0
11.22000, 24.0
11.24000, 22.0
11.26000, 20.0
11.28000, 24.0
11.30000, 23.0
11.32000, 18.0
11.34000, 18.0
11.36000, 21.0
11.38000, 21.0
11.40000, 18.0
11.42000, 18.0
11.44000, 20.0
11.46000, 18.0
11.48000, 18.0
11.50000, 21.0
11.52000, 19.0
11.54000, 14.0
11.56000, 17.0
11.58000, 25.0
11.60000, 29.0
11.62000, 25.0
11.64000, 20.0
11.66000, 14.0
11.68000, 14.0
11.70000, 14.0
11.72000, 15.0
11.74000, 20.0
11.76000, 17.0
11.78000, 13.0
11.80000, 16.0
11.82000, 20.0
11.84000, 18.0
11.86000, 16.0
11.88000, 14.0
11.90000, 17.0
11.92000, 18.0
11.94000, 12.0
11.96000, 10.0
11.98000, 10.0
12.00000, 10.0
12.02000, 13.0
12.04000, 12.0
12.06000, 16.0
12.08000, 18.0
12.10000, 15.0
12.12000, 12.0
12.14000, 11.0
12.16000, 11.0
12.18000, 9.0
12.20000, 10.0
12.22000, 11.0
12.24000, 15.0
12.26000, 14.0
12.28000, 13.0
12.30000, 17.0
12.32000, 14.0
12.34000, 15.0
12.36000, 14.0
12.38000, 11.0
12.40000, 12.0
12.42000, 12.0
12.44000, 13.0
12.46000, 15.0
12.48000, 13.0
12.50000, 13.0
12.52000, 11.0
12.54000, 12.0
12.56000, 7.0
12.58000, 7.0
12.60000, 7.0
12.62000, 11.0
12.64000, 11.0
12.66000, 9.0
12.68000, 8.0
12.70000, 10.0
12.72000, 11.0
12.74000, 10.0
12.76000, 8.0
12.78000, 10.0
12.80000, 14.0
12.82000, 9.0
12.84000, 9.0
12.86000, 13.0
12.88000, 9.0
12.90000, 7.0
12.92000, 8.0
12.94000, 10.0
12.96000, 9.0
12.98000, 8.0
13.00000, 11.0
13.02000, 9.0
13.04000, 5.0
13.06000, 6.0
13.08000, 7.0
13.10000, 10.0
13.12000, 11.0
13.14000, 9.0
13.16000, 8.0
13.18000, 10.0
13.20000, 9.0
13.22000, 8.0
13.24000, 6.0
13.26000, 7.0
13.28000, 7.0
13.30000, 5.0
13.32000, 7.0
13.34000, 8.0
13.36000, 8.0
13.38000, 11.0
13.40000, 13.0
13.42000, 9.0
13.44000, 9.0
13.46000, 11.0
13.48000, 8.0
13.50000, 5.0
13.52000, 8.0
13.54000, 7.0
13.56000, 7.0
13.58000, 8.0
13.60000, 4.0
13.62000, 5.0
13.64000, 5.0
13.66000, 3.0
13.68000, 5.0
13.70000, 5.0
13.72000, 3.0
13.74000, 3.0
13.76000, 6.0
13.78000, 8.0
13.80000, 7.0
13.82000, 4.0
13.84000, 3.0
13.86000, 5.0
13.88000, 4.0
13.90000, 2.0
13.92000, 3.0
13.94000, 6.0
13.96000, 7.0
13.98000, 2.0
14.00000, 3.0
14.02000, 3.0
14.04000, 3.0
14.06000, 4.0
14.08000, 5.0
14.10000, 4.0
14.12000, 5.0
14.14000, 4.0
14.16000, 3.0
14.18000, 3.0
14.20000, 2.0
14.22000, 4.0
14.24000, 6.0
14.26000, 3.0
14.28000, 3.0
14.30000, 2.0
14.32000, 3.0
14.34000, 4.0
14.36000, 6.0
14.38000, 6.0
14.40000, 3.0
14.42000, 2.0
14.44000, 2.0
14.46000, 1.0
14.48000, 4.0
14.50000, 3.0
14.52000, 2.0
14.54000, 3.0
14.56000, 2.0
14.58000, 1.0
14.60000, 1.0
14.62000, 2.0
14.64000, 4.0
14.66000, 4.0
14.68000, 1.0
14.70000, 2.0
14.72000, 3.0
14.74000, 2.0
14.76000, 1.0
14.78000, 1.0
14.80000, 1.0
14.82000, 1.0
14.84000, 2.0
14.86000, 3.0
14.88000, 3.0
14.90000, 1.0
14.92000, 4.0
14.94000, 5.0
14.96000, 1.0
14.98000, 0.0
15.00000, 0.0
15.02000, 0.0
15.04000, 1.0
15.06000, 1.0
15.08000, 1.0
15.10000, 1.0
15.12000, 1.0
15.14000, 0.0
15.16000, 0.0
15.18000, 0.0
15.20000, 0.0
15.22000, 0.0
15.24000, 1.0
15.26000, 0.0
15.28000, 0.0
15.30000, 0.0
15.32000, 0.0
15.34000, 0.0
15.36000, 0.0
15.38000, 0.0
15.40000, 0.0
15.42000, 0.0
15.44000, 0.0
15.46000, 0.0
15.48000, 0.0
15.50000, 0.0
15.52000, 0.0
15.54000, 0.0
15.56000, 0.0
15.58000, 0.0
15.60000, 0.0
15.62000, 0.0
15.64000, 0.0
15.66000, 0.0
15.68000, 0.0
15.70000, 0.0
15.72000, 0.0
15.74000, 0.0
15.76000, 0.0
15.78000, 0.0
15.80000, 0.0
15.82000, 0.0
15.84000, 0.0
15.86000, 0.0
15.88000, 0.0
15.90000, 0.0
15.92000, 0.0
15.94000, 0.0
15.96000, 0.0
15.98000, 0.0
16.00000, 0.0
16.02000, 0.0
16.04000, 0.0
16.06000, 0.0
16.08000, 0.0
16.10000, 0.0
16.12000, 0.0
16.14000, 0.0
16.16000, 0.0
16.18000, 0.0
16.20000, 0.0
16.22000, 0.0
16.24000, 0.0
16.26000, 0.0
16.28000, 0.0
16.30000, 0.0
16.32000, 0.0
16.34000, 0.0
16.36000, 0.0
16.38000, 0.0
16.40000, 0.0
16.42000, 0.0
16.44000, 0.0
16.46000, 0.0
16.48000, 0.0
16.50000, 0.0
16.52000, 0.0
16.54000, 0.0
16.56000, 0.0
16.58000, 0.0
16.60000, 0.0
16.62000, 0.0
16.64000, 0.0
16.66000, 0.0
16.68000, 0.0
16.70000, 0.0
16.72000, 0.0
16.74000, 0.0
16.76000, 0.0
16.78000, 0.0
16.80000, 0.0
16.82000, 0.0
16.84000, 0.0
16.86000, 0.0
16.88000, 0.0
16.90000, 0.0
16.92000, 0.0
16.94000, 0.0
16.96000, 0.0
16.98000, 0.0
17.00000, 0.0
17.02000, 0.0
17.04000, 0.0
17.06000, 0.0
17.08000, 0.0
17.10000, 0.0
17.12000, 0.0
17.14000, 0.0
17.16000, 0.0
17.18000, 0.0
17.20000, 0.0
17.22000, 0.0
17.24000, 0.0
17.26000, 0.0
17.28000, 0.0
17.30000, 0.0
17.32000, 0.0
17.34000, 0.0
17.36000, 0.0
17.38000, 0.0
17.40000, 0.0
17.42000, 0.0
17.44000, 0.0
17.46000, 0.0
17.48000, 0.0
17.50000, 0.0
17.52000, 0.0
17.54000, 0.0
17.56000, 0.0
17.58000, 0.0
17.60000, 0.0
17.62000, 0.0
17.64000, 0.0
17.66000, 0.0
17.68000, 0.0
17.70000, 0.0
17.72000, 0.0
17.74000, 0.0
17.76000, 0.0
17.78000, 0.0
17.80000, 0.0
17.82000, 0.0
17.84000, 0.0
17.86000, 0.0
17.88000, 0.0
17.90000, 0.0
17.92000, 0.0
17.94000, 0.0
17.96000, 0.0
17.98000, 0.0
18.00000, 0.0
18.02000, 0.0
18.04000, 0.0
18.06000, 0.0
18.08000, 0.0
18.10000, 0.0
18.12000, 0.0
18.14000, 0.0
18.16000, 1.0
18.18000, 0.0
18.20000, 0.0
18.22000, 0.0
18.24000, 0.0
18.26000, 0.0
18.28000, 0.0
18.30000, 0.0
18.32000, 0.0
18.34000, 0.0
18.36000, 0.0
18.38000, 0.0
18.40000, 0.0
18.42000, 0.0
18.44000, 0.0
18.46000, 0.0
18.48000, 1.0
18.50000, 0.0
18.52000, 0.0
18.54000, 0.0
18.56000, 0.0
18.58000, 0.0
18.60000, 0.0
18.62000, 0.0
18.64000, 0.0
18.66000, 0.0
18.68000, 0.0
18.70000, 0.0
18.72000, 0.0
18.74000, 0.0
18.76000, 0.0
18.78000, 0.0
18.80000, 0.0
18.82000, 0.0
18.84000, 0.0
18.86000, 0.0
18.88000, 0.0
18.90000, 0.0
18.92000, 0.0
18.94000, 0.0
18.96000, 0.0
18.98000, 0.0
19.00000, 0.0
19.02000, 0.0
19.04000, 0.0
19.06000, 0.0
19.08000, 0.0
19.10000, 0.0
19.12000, 0.0
19.14000, 0.0
19.16000, 0.0
19.18000, 0.0
19.20000, 0.0
19.22000, 0.0
19.24000, 0.0
19.26000, 0.0
19.28000, 0.0
19.30000, 0.0
19.32000, 0.0
19.34000, 0.0
19.36000, 0.0
19.38000, 0.0
19.40000, 0.0
19.42000, 0.0
19.44000, 0.0
19.46000, 0.0
19.48000, 0.0
19.50000, 0.0
19.52000, 0.0
19.54000, 0.0
19.56000, 0.0
19.58000, 0.0
19.60000, 0.0
19.62000, 0.0
19.64000, 0.0
19.66000, 0.0
19.68000, 0.0
19.70000, 0.0
19.72000, 0.0
19.74000, 0.0
19.76000, 0.0
19.78000, 0.0
19.80000, 0.0
19.82000, 0.0
19.84000, 0.0
19.86000, 0.0
19.88000, 0.0
19.90000, 0.0
19.92000, 0.0
19.94000, 0.0
19.96000, 0.0
19.98000, 0.0
20.00000, 0.0
20.02000, 0.0
20.04000, 0.0
20.06000, 0.0
20.08000, 0.0
20.10000, 0.0
20.12000, 0.0
20.14000, 0.0
20.16000, 0.0
20.18000, 0.0
20.20000, 0.0
20.22000, 0.0
20.24000, 0.0
20.26000, 0.0
#ENDOFDATA   :