File: N15_15keV_10_02.txt
#FORMAT      : EMSA/MAS Spectral Data File
#VERSION     : 1.0
#TITLE       : N15_15keV_10_02
#DATE        : 04-JUL-2024
#TIME        : 10:20
#OWNER       :
#NPOINTS     : 1024.0
#NCOLUMNS    : 1.0
#XUNITS      : keV
#YUNITS      : counts
#DATATYPE    : XY
#XPERCHAN    : 0.02
#OFFSET      : -0.2
#SIGNALTYPE  : EDS
#CHOFFSET    : 10.0
#LIVETIME    : 120.418
#REALTIME    : 122.716
#BEAMKV      : 15.0
#MAGCAM      : 700.0
#XTILTSTGE   : 0.0
#AZIMANGLE   : 0.0
#ELEVANGLE   : 25.5
#XPOSITION mm: 0.0643
#YPOSITION mm: 2.1078
#ZPOSITION mm: 14.6339
##OXINSTPT   : 2
##OXINSTSTROB: 69.69
##OXINSTELEMS: 6,8,16,29,7,15,9
##OXINSTLABEL: 6, 0.277, C K?1_2
##OXINSTLABEL: 8, 0.525, O K?1
##OXINSTLABEL: 16, 2.308, S K?1
##OXINSTLABEL: 16, 2.464, S K?1
##OXINSTLABEL: 29, 8.048, Cu K?1
##OXINSTLABEL: 29, 8.905, Cu K?1
##OXINSTLABEL: 29, 0.930, Cu L?1,2
##OXINSTLABEL: 29, 0.832, Cu L?
##OXINSTLABEL: 29, 0.811, Cu Ll
##OXINSTLABEL: 7, 0.392, N K?1_2
##OXINSTLABEL: 15, 2.014, P K?1
##OXINSTLABEL: 15, 2.139, P K?1
##OXINSTLABEL: 9, 0.677, F K?1_2
#SPECTRUM    : Spectral Data Starts Here
-0.20000, 0.0
-0.18000, 0.0
-0.16000, 0.0
-0.14000, 0.0
-0.12000, 0.0
-0.10000, 1.0
-0.08000, 18.0
-0.06000, 106.0
-0.04000, 546.0
-0.02000, 1912.0
0.00000, 4678.0
0.02000, 8168.0
0.04000, 10315.0
0.06000, 9319.0
0.08000, 6102.0
0.10000, 2977.0
0.12000, 1408.0
0.14000, 1018.0
0.16000, 966.0
0.18000, 842.0
0.20000, 629.0
0.22000, 468.0
0.24000, 415.0
0.26000, 468.0
0.28000, 461.0
0.30000, 367.0
0.32000, 236.0
0.34000, 139.0
0.36000, 124.0
0.38000, 150.0
0.40000, 170.0
0.42000, 181.0
0.44000, 244.0
0.46000, 401.0
0.48000, 632.0
0.50000, 938.0
0.52000, 1143.0
0.54000, 1048.0
0.56000, 824.0
0.58000, 583.0
0.60000, 390.0
0.62000, 297.0
0.64000, 275.0
0.66000, 294.0
0.68000, 320.0
0.70000, 324.0
0.72000, 325.0
0.74000, 346.0
0.76000, 365.0
0.78000, 356.0
0.80000, 360.0
0.82000, 389.0
0.84000, 415.0
0.86000, 424.0
0.88000, 428.0
0.90000, 451.0
0.92000, 473.0
0.94000, 492.0
0.96000, 516.0
0.98000, 500.0
1.00000, 513.0
1.02000, 540.0
1.04000, 537.0
1.06000, 563.0
1.08000, 566.0
1.10000, 585.0
1.12000, 577.0
1.14000, 578.0
1.16000, 595.0
1.18000, 592.0
1.20000, 599.0
1.22000, 632.0
1.24000, 647.0
1.26000, 650.0
1.28000, 665.0
1.30000, 678.0
1.32000, 661.0
1.34000, 666.0
1.36000, 673.0
1.38000, 656.0
1.40000, 693.0
1.42000, 715.0
1.44000, 701.0
1.46000, 717.0
1.48000, 731.0
1.50000, 733.0
1.52000, 749.0
1.54000, 812.0
1.56000, 788.0
1.58000, 788.0
1.60000, 927.0
1.62000, 1421.0
1.64000, 2988.0
1.66000, 7258.0
1.68000, 15630.0
1.70000, 27832.0
1.72000, 39724.0
1.74000, 45852.0
1.76000, 42136.0
1.78000, 31498.0
1.80000, 19544.0
1.82000, 10575.0
1.84000, 5469.0
1.86000, 2940.0
1.88000, 1663.0
1.90000, 1014.0
1.92000, 666.0
1.94000, 464.0
1.96000, 423.0
1.98000, 435.0
2.00000, 483.0
2.02000, 481.0
2.04000, 468.0
2.06000, 448.0
2.08000, 419.0
2.10000, 417.0
2.12000, 417.0
2.14000, 408.0
2.16000, 463.0
2.18000, 594.0
2.20000, 1017.0
2.22000, 1826.0
2.24000, 3294.0
2.26000, 5375.0
2.28000, 7420.0
2.30000, 8693.0
2.32000, 8575.0
2.34000, 7229.0
2.36000, 5362.0
2.38000, 3846.0
2.40000, 2825.0
2.42000, 2133.0
2.44000, 1724.0
2.46000, 1464.0
2.48000, 1208.0
2.50000, 956.0
2.52000, 745.0
2.54000, 590.0
2.56000, 466.0
2.58000, 376.0
2.60000, 317.0
2.62000, 299.0
2.64000, 290.0
2.66000, 273.0
2.68000, 263.0
2.70000, 267.0
2.72000, 259.0
2.74000, 247.0
2.76000, 246.0
2.78000, 252.0
2.80000, 268.0
2.82000, 272.0
2.84000, 270.0
2.86000, 265.0
2.88000, 259.0
2.90000, 248.0
2.92000, 250.0
2.94000, 246.0
2.96000, 223.0
2.98000, 203.0
3.00000, 200.0
3.02000, 220.0
3.04000, 216.0
3.06000, 209.0
3.08000, 235.0
3.10000, 238.0
3.12000, 244.0
3.14000, 226.0
3.16000, 231.0
3.18000, 252.0
3.20000, 232.0
3.22000, 219.0
3.24000, 225.0
3.26000, 215.0
3.28000, 225.0
3.30000, 222.0
3.32000, 206.0
3.34000, 194.0
3.36000, 204.0
3.38000, 211.0
3.40000, 216.0
3.42000, 226.0
3.44000, 236.0
3.46000, 233.0
3.48000, 241.0
3.50000, 247.0
3.52000, 244.0
3.54000, 247.0
3.56000, 236.0
3.58000, 205.0
3.60000, 196.0
3.62000, 189.0
3.64000, 199.0
3.66000, 209.0
3.68000, 208.0
3.70000, 208.0
3.72000, 213.0
3.74000, 213.0
3.76000, 212.0
3.78000, 196.0
3.80000, 197.0
3.82000, 197.0
3.84000, 190.0
3.86000, 203.0
3.88000, 184.0
3.90000, 177.0
3.92000, 188.0
3.94000, 189.0
3.96000, 183.0
3.98000, 187.0
4.00000, 216.0
4.02000, 225.0
4.04000, 215.0
4.06000, 202.0
4.08000, 187.0
4.10000, 187.0
4.12000, 184.0
4.14000, 187.0
4.16000, 183.0
4.18000, 181.0
4.20000, 182.0
4.22000, 183.0
4.24000, 195.0
4.26000, 181.0
4.28000, 169.0
4.30000, 186.0
4.32000, 172.0
4.34000, 158.0
4.36000, 169.0
4.38000, 167.0
4.40000, 156.0
4.42000, 147.0
4.44000, 152.0
4.46000, 158.0
4.48000, 162.0
4.50000, 152.0
4.52000, 151.0
4.54000, 151.0
4.56000, 140.0
4.58000, 153.0
4.60000, 168.0
4.62000, 161.0
4.64000, 154.0
4.66000, 152.0
4.68000, 158.0
4.70000, 161.0
4.72000, 149.0
4.74000, 149.0
4.76000, 166.0
4.78000, 157.0
4.80000, 144.0
4.82000, 158.0
4.84000, 165.0
4.86000, 155.0
4.88000, 151.0
4.90000, 149.0
4.92000, 150.0
4.94000, 142.0
4.96000, 125.0
4.98000, 131.0
5.00000, 136.0
5.02000, 127.0
5.04000, 122.0
5.06000, 150.0
5.08000, 148.0
5.10000, 127.0
5.12000, 124.0
5.14000, 133.0
5.16000, 138.0
5.18000, 132.0
5.20000, 131.0
5.22000, 134.0
5.24000, 147.0
5.26000, 147.0
5.28000, 130.0
5.30000, 118.0
5.32000, 117.0
5.34000, 123.0
5.36000, 126.0
5.38000, 134.0
5.40000, 135.0
5.42000, 122.0
5.44000, 121.0
5.46000, 126.0
5.48000, 124.0
5.50000, 135.0
5.52000, 141.0
5.54000, 139.0
5.56000, 126.0
5.58000, 118.0
5.60000, 120.0
5.62000, 119.0
5.64000, 118.0
5.66000, 111.0
5.68000, 119.0
5.70000, 119.0
5.72000, 117.0
5.74000, 127.0
5.76000, 115.0
5.78000, 93.0
5.80000, 91.0
5.82000, 108.0
5.84000, 124.0
5.86000, 120.0
5.88000, 111.0
5.90000, 110.0
5.92000, 114.0
5.94000, 99.0
5.96000, 86.0
5.98000, 91.0
6.00000, 113.0
6.02000, 116.0
6.04000, 111.0
6.06000, 122.0
6.08000, 113.0
6.10000, 98.0
6.12000, 88.0
6.14000, 81.0
6.16000, 85.0
6.18000, 100.0
6.20000, 104.0
6.22000, 102.0
6.24000, 98.0
6.26000, 95.0
6.28000, 92.0
6.30000, 94.0
6.32000, 97.0
6.34000, 99.0
6.36000, 110.0
6.38000, 104.0
6.40000, 96.0
6.42000, 102.0
6.44000, 90.0
6.46000, 83.0
6.48000, 86.0
6.50000, 91.0
6.52000, 92.0
6.54000, 88.0
6.56000, 95.0
6.58000, 93.0
6.60000, 90.0
6.62000, 92.0
6.64000, 90.0
6.66000, 90.0
6.68000, 92.0
6.70000, 88.0
6.72000, 87.0
6.74000, 84.0
6.76000, 83.0
6.78000, 88.0
6.80000, 84.0
6.82000, 80.0
6.84000, 84.0
6.86000, 88.0
6.88000, 84.0
6.90000, 81.0
6.92000, 82.0
6.94000, 85.0
6.96000, 88.0
6.98000, 82.0
7.00000, 85.0
7.02000, 89.0
7.04000, 91.0
7.06000, 76.0
7.08000, 71.0
7.10000, 89.0
7.12000, 84.0
7.14000, 84.0
7.16000, 88.0
7.18000, 84.0
7.20000, 73.0
7.22000, 70.0
7.24000, 79.0
7.26000, 79.0
7.28000, 88.0
7.30000, 77.0
7.32000, 66.0
7.34000, 80.0
7.36000, 83.0
7.38000, 86.0
7.40000, 87.0
7.42000, 80.0
7.44000, 77.0
7.46000, 73.0
7.48000, 68.0
7.50000, 72.0
7.52000, 67.0
7.54000, 63.0
7.56000, 68.0
7.58000, 66.0
7.60000, 59.0
7.62000, 65.0
7.64000, 75.0
7.66000, 75.0
7.68000, 77.0
7.70000, 73.0
7.72000, 66.0
7.74000, 61.0
7.76000, 61.0
7.78000, 61.0
7.80000, 62.0
7.82000, 61.0
7.84000, 58.0
7.86000, 63.0
7.88000, 65.0
7.90000, 65.0
7.92000, 63.0
7.94000, 69.0
7.96000, 73.0
7.98000, 67.0
8.00000, 66.0
8.02000, 65.0
8.04000, 70.0
8.06000, 68.0
8.08000, 62.0
8.10000, 63.0
8.12000, 51.0
8.14000, 51.0
8.16000, 60.0
8.18000, 58.0
8.20000, 54.0
8.22000, 58.0
8.24000, 65.0
8.26000, 60.0
8.28000, 66.0
8.30000, 66.0
8.32000, 53.0
8.34000, 62.0
8.36000, 64.0
8.38000, 51.0
8.40000, 49.0
8.42000, 54.0
8.44000, 58.0
8.46000, 54.0
8.48000, 53.0
8.50000, 48.0
8.52000, 51.0
8.54000, 56.0
8.56000, 52.0
8.58000, 57.0
8.60000, 53.0
8.62000, 45.0
8.64000, 53.0
8.66000, 54.0
8.68000, 49.0
8.70000, 47.0
8.72000, 51.0
8.74000, 56.0
8.76000, 54.0
8.78000, 49.0
8.80000, 44.0
8.82000, 47.0
8.84000, 56.0
8.86000, 57.0
8.88000, 49.0
8.90000, 54.0
8.92000, 53.0
8.94000, 43.0
8.96000, 36.0
8.98000, 36.0
9.00000, 41.0
9.02000, 39.0
9.04000, 39.0
9.06000, 42.0
9.08000, 48.0
9.10000, 45.0
9.12000, 41.0
9.14000, 43.0
9.16000, 40.0
9.18000, 36.0
9.20000, 41.0
9.22000, 49.0
9.24000, 52.0
9.26000, 50.0
9.28000, 42.0
9.30000, 46.0
9.32000, 44.0
9.34000, 38.0
9.36000, 34.0
9.38000, 35.0
9.40000, 40.0
9.42000, 35.0
9.44000, 32.0
9.46000, 40.0
9.48000, 43.0
9.50000, 45.0
9.52000, 53.0
9.54000, 50.0
9.56000, 44.0
9.58000, 46.0
9.60000, 44.0
9.62000, 37.0
9.64000, 38.0
9.66000, 48.0
9.68000, 48.0
9.70000, 40.0
9.72000, 31.0
9.74000, 33.0
9.76000, 38.0
9.78000, 37.0
9.80000, 44.0
9.82000, 44.0
9.84000, 38.0
9.86000, 40.0
9.88000, 43.0
9.90000, 43.0
9.92000, 44.0
9.94000, 36.0
9.96000, 28.0
9.98000, 29.0
10.00000, 34.0
10.02000, 33.0
10.04000, 33.0
10.06000, 37.0
10.08000, 38.0
10.10000, 34.0
10.12000, 33.0
10.14000, 29.0
10.16000, 31.0
10.18000, 40.0
10.20000, 44.0
10.22000, 42.0
10.24000, 39.0
10.26000, 36.0
10.28000, 34.0
10.30000, 32.0
10.32000, 31.0
10.34000, 35.0
10.36000, 38.0
10.38000, 40.0
10.40000, 41.0
10.42000, 34.0
10.44000, 32.0
10.46000, 30.0
10.48000, 26.0
10.50000, 29.0
10.52000, 37.0
10.54000, 35.0
10.56000, 34.0
10.58000, 39.0
10.60000, 34.0
10.62000, 31.0
10.64000, 37.0
10.66000, 37.0
10.68000, 30.0
10.70000, 22.0
10.72000, 25.0
10.74000, 29.0
10.76000, 27.0
10.78000, 29.0
10.80000, 30.0
10.82000, 32.0
10.84000, 30.0
10.86000, 28.0
10.88000, 26.0
10.90000, 27.0
10.92000, 24.0
10.94000, 19.0
10.96000, 18.0
10.98000, 29.0
11.00000, 34.0
11.02000, 26.0
11.04000, 23.0
11.06000, 22.0
11.08000, 26.0
11.10000, 33.0
11.12000, 30.0
11.14000, 21.0
11.16000, 21.0
11.18000, 24.0
11.20000, 27.0
11.22000, 23.0
11.24000, 22.0
11.26000, 26.0
11.28000, 25.0
11.30000, 25.0
11.32000, 20.0
11.34000, 23.0
11.36000, 25.0
11.38000, 20.0
11.40000, 24.0
11.42000, 22.0
11.44000, 21.0
11.46000, 22.0
11.48000, 18.0
11.50000, 18.0
11.52000, 20.0
11.54000, 25.0
11.56000, 29.0
11.58000, 25.0
11.60000, 22.0
11.62000, 19.0
11.64000, 20.0
11.66000, 24.0
11.68000, 22.0
11.70000, 21.0
11.72000, 20.0
11.74000, 17.0
11.76000, 18.0
11.78000, 20.0
11.80000, 19.0
11.82000, 18.0
11.84000, 19.0
11.86000, 18.0
11.88000, 26.0
11.90000, 25.0
11.92000, 16.0
11.94000, 15.0
11.96000, 13.0
11.98000, 18.0
12.00000, 24.0
12.02000, 24.0
12.04000, 25.0
12.06000, 25.0
12.08000, 18.0
12.10000, 17.0
12.12000, 19.0
12.14000, 18.0
12.16000, 17.0
12.18000, 15.0
12.20000, 19.0
12.22000, 18.0
12.24000, 18.0
12.26000, 17.0
12.28000, 12.0
12.30000, 11.0
12.32000, 16.0
12.34000, 20.0
12.36000, 21.0
12.38000, 15.0
12.40000, 11.0
12.42000, 12.0
12.44000, 14.0
12.46000, 14.0
12.48000, 14.0
12.50000, 13.0
12.52000, 14.0
12.54000, 13.0
12.56000, 15.0
12.58000, 15.0
12.60000, 16.0
12.62000, 17.0
12.64000, 15.0
12.66000, 14.0
12.68000, 15.0
12.70000, 17.0
12.72000, 18.0
12.74000, 22.0
12.76000, 20.0
12.78000, 12.0
12.80000, 14.0
12.82000, 17.0
12.84000, 11.0
12.86000, 11.0
12.88000, 10.0
12.90000, 11.0
12.92000, 12.0
12.94000, 11.0
12.96000, 8.0
12.98000, 10.0
13.00000, 9.0
13.02000, 13.0
13.04000, 14.0
13.06000, 14.0
13.08000, 12.0
13.10000, 11.0
13.12000, 9.0
13.14000, 11.0
13.16000, 13.0
13.18000, 10.0
13.20000, 11.0
13.22000, 16.0
13.24000, 18.0
13.26000, 15.0
13.28000, 10.0
13.30000, 6.0
13.32000, 11.0
13.34000, 12.0
13.36000, 9.0
13.38000, 11.0
13.40000, 10.0
13.42000, 12.0
13.44000, 14.0
13.46000, 11.0
13.48000, 10.0
13.50000, 13.0
13.52000, 10.0
13.54000, 9.0
13.56000, 8.0
13.58000, 8.0
13.60000, 7.0
13.62000, 5.0
13.64000, 8.0
13.66000, 7.0
13.68000, 7.0
13.70000, 10.0
13.72000, 11.0
13.74000, 9.0
13.76000, 7.0
13.78000, 6.0
13.80000, 6.0
13.82000, 6.0
13.84000, 7.0
13.86000, 6.0
13.88000, 6.0
13.90000, 10.0
13.92000, 6.0
13.94000, 8.0
13.96000, 7.0
13.98000, 4.0
14.00000, 6.0
14.02000, 7.0
14.04000, 7.0
14.06000, 5.0
14.08000, 4.0
14.10000, 4.0
14.12000, 7.0
14.14000, 8.0
14.16000, 7.0
14.18000, 8.0
14.20000, 8.0
14.22000, 9.0
14.24000, 9.0
14.26000, 8.0
14.28000, 8.0
14.30000, 10.0
14.32000, 8.0
14.34000, 3.0
14.36000, 4.0
14.38000, 4.0
14.40000, 4.0
14.42000, 5.0
14.44000, 4.0
14.46000, 6.0
14.48000, 3.0
14.50000, 3.0
14.52000, 5.0
14.54000, 4.0
14.56000, 3.0
14.58000, 3.0
14.60000, 3.0
14.62000, 2.0
14.64000, 4.0
14.66000, 2.0
14.68000, 2.0
14.70000, 3.0
14.72000, 3.0
14.74000, 2.0
14.76000, 3.0
14.78000, 2.0
14.80000, 2.0
14.82000, 0.0
14.84000, 0.0
14.86000, 2.0
14.88000, 3.0
14.90000, 2.0
14.92000, 0.0
14.94000, 0.0
14.96000, 1.0
14.98000, 1.0
15.00000, 1.0
15.02000, 1.0
15.04000, 0.0
15.06000, 0.0
15.08000, 0.0
15.10000, 0.0
15.12000, 0.0
15.14000, 1.0
15.16000, 0.0
15.18000, 0.0
15.20000, 0.0
15.22000, 0.0
15.24000, 0.0
15.26000, 0.0
15.28000, 0.0
15.30000, 1.0
15.32000, 0.0
15.34000, 0.0
15.36000, 1.0
15.38000, 0.0
15.40000, 0.0
15.42000, 0.0
15.44000, 0.0
15.46000, 0.0
15.48000, 0.0
15.50000, 0.0
15.52000, 0.0
15.54000, 0.0
15.56000, 0.0
15.58000, 0.0
15.60000, 0.0
15.62000, 0.0
15.64000, 0.0
15.66000, 0.0
15.68000, 0.0
15.70000, 0.0
15.72000, 0.0
15.74000, 0.0
15.76000, 0.0
15.78000, 0.0
15.80000, 0.0
15.82000, 0.0
15.84000, 0.0
15.86000, 0.0
15.88000, 0.0
15.90000, 0.0
15.92000, 0.0
15.94000, 0.0
15.96000, 0.0
15.98000, 0.0
16.00000, 0.0
16.02000, 0.0
16.04000, 0.0
16.06000, 0.0
16.08000, 0.0
16.10000, 0.0
16.12000, 0.0
16.14000, 0.0
16.16000, 0.0
16.18000, 0.0
16.20000, 0.0
16.22000, 0.0
16.24000, 0.0
16.26000, 0.0
16.28000, 0.0
16.30000, 0.0
16.32000, 0.0
16.34000, 0.0
16.36000, 0.0
16.38000, 0.0
16.40000, 1.0
16.42000, 0.0
16.44000, 0.0
16.46000, 0.0
16.48000, 0.0
16.50000, 0.0
16.52000, 0.0
16.54000, 0.0
16.56000, 0.0
16.58000, 0.0
16.60000, 0.0
16.62000, 0.0
16.64000, 0.0
16.66000, 0.0
16.68000, 0.0
16.70000, 0.0
16.72000, 0.0
16.74000, 0.0
16.76000, 0.0
16.78000, 0.0
16.80000, 0.0
16.82000, 0.0
16.84000, 0.0
16.86000, 0.0
16.88000, 0.0
16.90000, 0.0
16.92000, 0.0
16.94000, 0.0
16.96000, 0.0
16.98000, 0.0
17.00000, 0.0
17.02000, 0.0
17.04000, 0.0
17.06000, 0.0
17.08000, 0.0
17.10000, 0.0
17.12000, 0.0
17.14000, 0.0
17.16000, 0.0
17.18000, 0.0
17.20000, 0.0
17.22000, 0.0
17.24000, 0.0
17.26000, 0.0
17.28000, 0.0
17.30000, 0.0
17.32000, 0.0
17.34000, 0.0
17.36000, 0.0
17.38000, 0.0
17.40000, 0.0
17.42000, 0.0
17.44000, 0.0
17.46000, 0.0
17.48000, 0.0
17.50000, 0.0
17.52000, 0.0
17.54000, 0.0
17.56000, 0.0
17.58000, 0.0
17.60000, 0.0
17.62000, 0.0
17.64000, 0.0
17.66000, 0.0
17.68000, 0.0
17.70000, 0.0
17.72000, 0.0
17.74000, 0.0
17.76000, 0.0
17.78000, 0.0
17.80000, 0.0
17.82000, 0.0
17.84000, 0.0
17.86000, 0.0
17.88000, 0.0
17.90000, 0.0
17.92000, 0.0
17.94000, 0.0
17.96000, 0.0
17.98000, 0.0
18.00000, 0.0
18.02000, 0.0
18.04000, 0.0
18.06000, 0.0
18.08000, 0.0
18.10000, 0.0
18.12000, 0.0
18.14000, 0.0
18.16000, 0.0
18.18000, 0.0
18.20000, 0.0
18.22000, 0.0
18.24000, 0.0
18.26000, 0.0
18.28000, 0.0
18.30000, 0.0
18.32000, 0.0
18.34000, 0.0
18.36000, 0.0
18.38000, 0.0
18.40000, 0.0
18.42000, 0.0
18.44000, 0.0
18.46000, 0.0
18.48000, 0.0
18.50000, 0.0
18.52000, 0.0
18.54000, 0.0
18.56000, 0.0
18.58000, 0.0
18.60000, 0.0
18.62000, 0.0
18.64000, 0.0
18.66000, 0.0
18.68000, 0.0
18.70000, 0.0
18.72000, 0.0
18.74000, 0.0
18.76000, 0.0
18.78000, 0.0
18.80000, 0.0
18.82000, 0.0
18.84000, 0.0
18.86000, 0.0
18.88000, 0.0
18.90000, 0.0
18.92000, 0.0
18.94000, 0.0
18.96000, 0.0
18.98000, 0.0
19.00000, 0.0
19.02000, 0.0
19.04000, 0.0
19.06000, 0.0
19.08000, 0.0
19.10000, 0.0
19.12000, 0.0
19.14000, 0.0
19.16000, 0.0
19.18000, 0.0
19.20000, 0.0
19.22000, 0.0
19.24000, 0.0
19.26000, 0.0
19.28000, 0.0
19.30000, 0.0
19.32000, 0.0
19.34000, 0.0
19.36000, 0.0
19.38000, 0.0
19.40000, 0.0
19.42000, 0.0
19.44000, 0.0
19.46000, 0.0
19.48000, 0.0
19.50000, 0.0
19.52000, 0.0
19.54000, 0.0
19.56000, 0.0
19.58000, 0.0
19.60000, 0.0
19.62000, 0.0
19.64000, 0.0
19.66000, 0.0
19.68000, 0.0
19.70000, 0.0
19.72000, 0.0
19.74000, 0.0
19.76000, 0.0
19.78000, 0.0
19.80000, 0.0
19.82000, 0.0
19.84000, 0.0
19.86000, 0.0
19.88000, 0.0
19.90000, 0.0
19.92000, 0.0
19.94000, 0.0
19.96000, 0.0
19.98000, 0.0
20.00000, 0.0
20.02000, 0.0
20.04000, 0.0
20.06000, 0.0
20.08000, 0.0
20.10000, 0.0
20.12000, 0.0
20.14000, 0.0
20.16000, 0.0
20.18000, 0.0
20.20000, 0.0
20.22000, 0.0
20.24000, 0.0
20.26000, 0.0
#ENDOFDATA   :