File: Thick 1/C10_15keV_10.txt
#FORMAT      : EMSA/MAS Spectral Data File
#VERSION     : 1.0
#TITLE       : C10_15keV_10
#DATE        : 04-JUL-2024
#TIME        : 09:18
#OWNER       :
#NPOINTS     : 1024.0
#NCOLUMNS    : 1.0
#XUNITS      : keV
#YUNITS      : counts
#DATATYPE    : XY
#XPERCHAN    : 0.02
#OFFSET      : -0.2
#SIGNALTYPE  : EDS
#CHOFFSET    : 10.0
#LIVETIME    : 119.998
#REALTIME    : 122.417
#BEAMKV      : 15.0
#MAGCAM      : 4300.0
#XTILTSTGE   : 0.0
#AZIMANGLE   : 0.0
#ELEVANGLE   : 25.5
#XPOSITION mm: 0.1598
#YPOSITION mm: -0.9510
#ZPOSITION mm: 14.6072
##OXINSTPT   : 2
##OXINSTSTROB: 69.71
##OXINSTELEMS: 8,16,14,42
##OXINSTLABEL: 8, 0.525, O K?1
##OXINSTLABEL: 16, 2.308, S K?1
##OXINSTLABEL: 16, 2.464, S K?1
##OXINSTLABEL: 14, 1.740, Si K?1
##OXINSTLABEL: 42, 0.193, Mo M?
##OXINSTLABEL: 42, 2.016, Mo Ll
##OXINSTLABEL: 42, 2.120, Mo L?
##OXINSTLABEL: 42, 2.293, Mo L?1
##OXINSTLABEL: 42, 2.395, Mo L?1
##OXINSTLABEL: 42, 2.518, Mo L?2,15
##OXINSTLABEL: 42, 2.624, Mo L?1
##OXINSTLABEL: 42, 2.831, Mo L?2,3
##OXINSTLABEL: 42, 17.375, Mo K?2
##OXINSTLABEL: 42, 17.480, Mo K?1
##OXINSTLABEL: 42, 19.609, Mo K?1
##OXINSTLABEL: 42, 19.965, Mo K?2
#SPECTRUM    : Spectral Data Starts Here
-0.20000, 0.0
-0.18000, 0.0
-0.16000, 0.0
-0.14000, 0.0
-0.12000, 0.0
-0.10000, 3.0
-0.08000, 14.0
-0.06000, 104.0
-0.04000, 535.0
-0.02000, 1941.0
0.00000, 4711.0
0.02000, 8129.0
0.04000, 10137.0
0.06000, 9315.0
0.08000, 6023.0
0.10000, 2872.0
0.12000, 1191.0
0.14000, 680.0
0.16000, 640.0
0.18000, 591.0
0.20000, 533.0
0.22000, 593.0
0.24000, 792.0
0.26000, 1030.0
0.28000, 1099.0
0.30000, 859.0
0.32000, 524.0
0.34000, 306.0
0.36000, 206.0
0.38000, 209.0
0.40000, 206.0
0.42000, 254.0
0.44000, 420.0
0.46000, 809.0
0.48000, 1459.0
0.50000, 2294.0
0.52000, 2746.0
0.54000, 2479.0
0.56000, 1690.0
0.58000, 908.0
0.60000, 455.0
0.62000, 283.0
0.64000, 255.0
0.66000, 259.0
0.68000, 253.0
0.70000, 251.0
0.72000, 288.0
0.74000, 286.0
0.76000, 308.0
0.78000, 330.0
0.80000, 337.0
0.82000, 379.0
0.84000, 391.0
0.86000, 418.0
0.88000, 419.0
0.90000, 442.0
0.92000, 454.0
0.94000, 472.0
0.96000, 491.0
0.98000, 500.0
1.00000, 536.0
1.02000, 529.0
1.04000, 540.0
1.06000, 551.0
1.08000, 544.0
1.10000, 575.0
1.12000, 592.0
1.14000, 580.0
1.16000, 567.0
1.18000, 578.0
1.20000, 602.0
1.22000, 616.0
1.24000, 629.0
1.26000, 646.0
1.28000, 675.0
1.30000, 684.0
1.32000, 658.0
1.34000, 664.0
1.36000, 686.0
1.38000, 708.0
1.40000, 690.0
1.42000, 676.0
1.44000, 676.0
1.46000, 702.0
1.48000, 764.0
1.50000, 795.0
1.52000, 807.0
1.54000, 862.0
1.56000, 871.0
1.58000, 886.0
1.60000, 1064.0
1.62000, 1672.0
1.64000, 3822.0
1.66000, 9272.0
1.68000, 19964.0
1.70000, 35596.0
1.72000, 51241.0
1.74000, 58976.0
1.76000, 54337.0
1.78000, 40446.0
1.80000, 25168.0
1.82000, 13561.0
1.84000, 6830.0
1.86000, 3604.0
1.88000, 2085.0
1.90000, 1201.0
1.92000, 688.0
1.94000, 455.0
1.96000, 337.0
1.98000, 317.0
2.00000, 355.0
2.02000, 362.0
2.04000, 354.0
2.06000, 359.0
2.08000, 341.0
2.10000, 333.0
2.12000, 320.0
2.14000, 304.0
2.16000, 327.0
2.18000, 387.0
2.20000, 529.0
2.22000, 870.0
2.24000, 1496.0
2.26000, 2368.0
2.28000, 3215.0
2.30000, 3781.0
2.32000, 3741.0
2.34000, 3168.0
2.36000, 2431.0
2.38000, 1784.0
2.40000, 1330.0
2.42000, 1066.0
2.44000, 898.0
2.46000, 749.0
2.48000, 627.0
2.50000, 553.0
2.52000, 501.0
2.54000, 416.0
2.56000, 357.0
2.58000, 328.0
2.60000, 290.0
2.62000, 272.0
2.64000, 277.0
2.66000, 274.0
2.68000, 265.0
2.70000, 236.0
2.72000, 242.0
2.74000, 259.0
2.76000, 257.0
2.78000, 243.0
2.80000, 248.0
2.82000, 255.0
2.84000, 254.0
2.86000, 242.0
2.88000, 232.0
2.90000, 223.0
2.92000, 223.0
2.94000, 233.0
2.96000, 234.0
2.98000, 236.0
3.00000, 226.0
3.02000, 221.0
3.04000, 238.0
3.06000, 243.0
3.08000, 226.0
3.10000, 225.0
3.12000, 225.0
3.14000, 217.0
3.16000, 215.0
3.18000, 206.0
3.20000, 210.0
3.22000, 206.0
3.24000, 194.0
3.26000, 199.0
3.28000, 214.0
3.30000, 220.0
3.32000, 221.0
3.34000, 231.0
3.36000, 226.0
3.38000, 216.0
3.40000, 214.0
3.42000, 227.0
3.44000, 254.0
3.46000, 257.0
3.48000, 256.0
3.50000, 255.0
3.52000, 225.0
3.54000, 238.0
3.56000, 220.0
3.58000, 203.0
3.60000, 206.0
3.62000, 195.0
3.64000, 190.0
3.66000, 197.0
3.68000, 202.0
3.70000, 198.0
3.72000, 197.0
3.74000, 185.0
3.76000, 191.0
3.78000, 180.0
3.80000, 167.0
3.82000, 177.0
3.84000, 184.0
3.86000, 186.0
3.88000, 181.0
3.90000, 192.0
3.92000, 199.0
3.94000, 179.0
3.96000, 174.0
3.98000, 186.0
4.00000, 198.0
4.02000, 187.0
4.04000, 170.0
4.06000, 179.0
4.08000, 182.0
4.10000, 179.0
4.12000, 164.0
4.14000, 173.0
4.16000, 185.0
4.18000, 177.0
4.20000, 168.0
4.22000, 171.0
4.24000, 166.0
4.26000, 145.0
4.28000, 161.0
4.30000, 176.0
4.32000, 153.0
4.34000, 145.0
4.36000, 161.0
4.38000, 154.0
4.40000, 145.0
4.42000, 155.0
4.44000, 161.0
4.46000, 163.0
4.48000, 156.0
4.50000, 148.0
4.52000, 152.0
4.54000, 158.0
4.56000, 153.0
4.58000, 156.0
4.60000, 150.0
4.62000, 152.0
4.64000, 150.0
4.66000, 143.0
4.68000, 141.0
4.70000, 136.0
4.72000, 135.0
4.74000, 134.0
4.76000, 141.0
4.78000, 129.0
4.80000, 128.0
4.82000, 141.0
4.84000, 140.0
4.86000, 132.0
4.88000, 133.0
4.90000, 130.0
4.92000, 130.0
4.94000, 136.0
4.96000, 134.0
4.98000, 117.0
5.00000, 125.0
5.02000, 134.0
5.04000, 133.0
5.06000, 133.0
5.08000, 138.0
5.10000, 140.0
5.12000, 128.0
5.14000, 132.0
5.16000, 126.0
5.18000, 119.0
5.20000, 122.0
5.22000, 123.0
5.24000, 133.0
5.26000, 128.0
5.28000, 128.0
5.30000, 134.0
5.32000, 125.0
5.34000, 125.0
5.36000, 132.0
5.38000, 119.0
5.40000, 124.0
5.42000, 119.0
5.44000, 123.0
5.46000, 135.0
5.48000, 126.0
5.50000, 135.0
5.52000, 125.0
5.54000, 111.0
5.56000, 118.0
5.58000, 114.0
5.60000, 118.0
5.62000, 114.0
5.64000, 113.0
5.66000, 118.0
5.68000, 118.0
5.70000, 123.0
5.72000, 110.0
5.74000, 100.0
5.76000, 119.0
5.78000, 126.0
5.80000, 116.0
5.82000, 108.0
5.84000, 116.0
5.86000, 110.0
5.88000, 104.0
5.90000, 98.0
5.92000, 99.0
5.94000, 110.0
5.96000, 109.0
5.98000, 103.0
6.00000, 99.0
6.02000, 99.0
6.04000, 89.0
6.06000, 86.0
6.08000, 92.0
6.10000, 98.0
6.12000, 98.0
6.14000, 99.0
6.16000, 91.0
6.18000, 86.0
6.20000, 87.0
6.22000, 90.0
6.24000, 91.0
6.26000, 102.0
6.28000, 102.0
6.30000, 101.0
6.32000, 99.0
6.34000, 90.0
6.36000, 84.0
6.38000, 83.0
6.40000, 88.0
6.42000, 93.0
6.44000, 92.0
6.46000, 91.0
6.48000, 88.0
6.50000, 81.0
6.52000, 83.0
6.54000, 84.0
6.56000, 78.0
6.58000, 80.0
6.60000, 83.0
6.62000, 83.0
6.64000, 84.0
6.66000, 78.0
6.68000, 86.0
6.70000, 88.0
6.72000, 75.0
6.74000, 79.0
6.76000, 79.0
6.78000, 83.0
6.80000, 91.0
6.82000, 78.0
6.84000, 80.0
6.86000, 91.0
6.88000, 79.0
6.90000, 75.0
6.92000, 90.0
6.94000, 91.0
6.96000, 81.0
6.98000, 73.0
7.00000, 70.0
7.02000, 74.0
7.04000, 79.0
7.06000, 75.0
7.08000, 74.0
7.10000, 82.0
7.12000, 73.0
7.14000, 69.0
7.16000, 80.0
7.18000, 75.0
7.20000, 72.0
7.22000, 79.0
7.24000, 77.0
7.26000, 72.0
7.28000, 72.0
7.30000, 70.0
7.32000, 71.0
7.34000, 70.0
7.36000, 65.0
7.38000, 68.0
7.40000, 73.0
7.42000, 75.0
7.44000, 67.0
7.46000, 57.0
7.48000, 59.0
7.50000, 61.0
7.52000, 69.0
7.54000, 72.0
7.56000, 67.0
7.58000, 57.0
7.60000, 53.0
7.62000, 61.0
7.64000, 64.0
7.66000, 69.0
7.68000, 65.0
7.70000, 52.0
7.72000, 47.0
7.74000, 62.0
7.76000, 74.0
7.78000, 65.0
7.80000, 56.0
7.82000, 69.0
7.84000, 77.0
7.86000, 66.0
7.88000, 57.0
7.90000, 53.0
7.92000, 52.0
7.94000, 63.0
7.96000, 65.0
7.98000, 63.0
8.00000, 70.0
8.02000, 60.0
8.04000, 54.0
8.06000, 59.0
8.08000, 66.0
8.10000, 73.0
8.12000, 66.0
8.14000, 55.0
8.16000, 51.0
8.18000, 61.0
8.20000, 65.0
8.22000, 54.0
8.24000, 52.0
8.26000, 57.0
8.28000, 49.0
8.30000, 50.0
8.32000, 60.0
8.34000, 58.0
8.36000, 59.0
8.38000, 57.0
8.40000, 50.0
8.42000, 48.0
8.44000, 46.0
8.46000, 50.0
8.48000, 55.0
8.50000, 54.0
8.52000, 50.0
8.54000, 45.0
8.56000, 51.0
8.58000, 59.0
8.60000, 52.0
8.62000, 49.0
8.64000, 47.0
8.66000, 41.0
8.68000, 42.0
8.70000, 52.0
8.72000, 46.0
8.74000, 36.0
8.76000, 41.0
8.78000, 46.0
8.80000, 48.0
8.82000, 44.0
8.84000, 39.0
8.86000, 41.0
8.88000, 41.0
8.90000, 44.0
8.92000, 44.0
8.94000, 39.0
8.96000, 40.0
8.98000, 40.0
9.00000, 44.0
9.02000, 46.0
9.04000, 42.0
9.06000, 42.0
9.08000, 41.0
9.10000, 44.0
9.12000, 42.0
9.14000, 41.0
9.16000, 45.0
9.18000, 46.0
9.20000, 41.0
9.22000, 40.0
9.24000, 42.0
9.26000, 38.0
9.28000, 42.0
9.30000, 41.0
9.32000, 35.0
9.34000, 36.0
9.36000, 37.0
9.38000, 38.0
9.40000, 38.0
9.42000, 31.0
9.44000, 30.0
9.46000, 32.0
9.48000, 36.0
9.50000, 39.0
9.52000, 32.0
9.54000, 35.0
9.56000, 38.0
9.58000, 32.0
9.60000, 38.0
9.62000, 41.0
9.64000, 33.0
9.66000, 25.0
9.68000, 28.0
9.70000, 32.0
9.72000, 34.0
9.74000, 38.0
9.76000, 35.0
9.78000, 32.0
9.80000, 28.0
9.82000, 30.0
9.84000, 32.0
9.86000, 32.0
9.88000, 39.0
9.90000, 39.0
9.92000, 34.0
9.94000, 33.0
9.96000, 31.0
9.98000, 23.0
10.00000, 25.0
10.02000, 28.0
10.04000, 28.0
10.06000, 34.0
10.08000, 34.0
10.10000, 37.0
10.12000, 32.0
10.14000, 26.0
10.16000, 25.0
10.18000, 25.0
10.20000, 26.0
10.22000, 26.0
10.24000, 24.0
10.26000, 31.0
10.28000, 35.0
10.30000, 33.0
10.32000, 28.0
10.34000, 29.0
10.36000, 31.0
10.38000, 31.0
10.40000, 31.0
10.42000, 27.0
10.44000, 25.0
10.46000, 26.0
10.48000, 30.0
10.50000, 30.0
10.52000, 28.0
10.54000, 29.0
10.56000, 26.0
10.58000, 23.0
10.60000, 27.0
10.62000, 29.0
10.64000, 22.0
10.66000, 19.0
10.68000, 21.0
10.70000, 24.0
10.72000, 23.0
10.74000, 24.0
10.76000, 25.0
10.78000, 22.0
10.80000, 24.0
10.82000, 28.0
10.84000, 24.0
10.86000, 19.0
10.88000, 25.0
10.90000, 25.0
10.92000, 20.0
10.94000, 17.0
10.96000, 17.0
10.98000, 25.0
11.00000, 27.0
11.02000, 22.0
11.04000, 17.0
11.06000, 19.0
11.08000, 20.0
11.10000, 18.0
11.12000, 25.0
11.14000, 24.0
11.16000, 22.0
11.18000, 21.0
11.20000, 20.0
11.22000, 20.0
11.24000, 23.0
11.26000, 22.0
11.28000, 22.0
11.30000, 21.0
11.32000, 21.0
11.34000, 21.0
11.36000, 17.0
11.38000, 20.0
11.40000, 17.0
11.42000, 13.0
11.44000, 15.0
11.46000, 13.0
11.48000, 17.0
11.50000, 21.0
11.52000, 18.0
11.54000, 17.0
11.56000, 14.0
11.58000, 21.0
11.60000, 25.0
11.62000, 17.0
11.64000, 13.0
11.66000, 15.0
11.68000, 22.0
11.70000, 21.0
11.72000, 24.0
11.74000, 21.0
11.76000, 20.0
11.78000, 19.0
11.80000, 16.0
11.82000, 20.0
11.84000, 15.0
11.86000, 11.0
11.88000, 14.0
11.90000, 12.0
11.92000, 15.0
11.94000, 17.0
11.96000, 22.0
11.98000, 23.0
12.00000, 11.0
12.02000, 13.0
12.04000, 21.0
12.06000, 24.0
12.08000, 18.0
12.10000, 11.0
12.12000, 15.0
12.14000, 15.0
12.16000, 17.0
12.18000, 17.0
12.20000, 14.0
12.22000, 16.0
12.24000, 13.0
12.26000, 12.0
12.28000, 11.0
12.30000, 14.0
12.32000, 15.0
12.34000, 14.0
12.36000, 11.0
12.38000, 16.0
12.40000, 16.0
12.42000, 10.0
12.44000, 9.0
12.46000, 9.0
12.48000, 8.0
12.50000, 7.0
12.52000, 9.0
12.54000, 10.0
12.56000, 10.0
12.58000, 9.0
12.60000, 11.0
12.62000, 14.0
12.64000, 12.0
12.66000, 13.0
12.68000, 11.0
12.70000, 8.0
12.72000, 10.0
12.74000, 11.0
12.76000, 8.0
12.78000, 4.0
12.80000, 9.0
12.82000, 12.0
12.84000, 8.0
12.86000, 9.0
12.88000, 8.0
12.90000, 9.0
12.92000, 8.0
12.94000, 8.0
12.96000, 7.0
12.98000, 7.0
13.00000, 10.0
13.02000, 11.0
13.04000, 8.0
13.06000, 6.0
13.08000, 8.0
13.10000, 9.0
13.12000, 8.0
13.14000, 9.0
13.16000, 8.0
13.18000, 7.0
13.20000, 6.0
13.22000, 7.0
13.24000, 7.0
13.26000, 6.0
13.28000, 5.0
13.30000, 7.0
13.32000, 10.0
13.34000, 5.0
13.36000, 4.0
13.38000, 5.0
13.40000, 6.0
13.42000, 8.0
13.44000, 5.0
13.46000, 4.0
13.48000, 5.0
13.50000, 4.0
13.52000, 5.0
13.54000, 7.0
13.56000, 7.0
13.58000, 4.0
13.60000, 6.0
13.62000, 7.0
13.64000, 6.0
13.66000, 6.0
13.68000, 5.0
13.70000, 4.0
13.72000, 4.0
13.74000, 4.0
13.76000, 5.0
13.78000, 5.0
13.80000, 5.0
13.82000, 7.0
13.84000, 5.0
13.86000, 3.0
13.88000, 3.0
13.90000, 5.0
13.92000, 5.0
13.94000, 6.0
13.96000, 4.0
13.98000, 1.0
14.00000, 2.0
14.02000, 4.0
14.04000, 6.0
14.06000, 8.0
14.08000, 4.0
14.10000, 6.0
14.12000, 6.0
14.14000, 3.0
14.16000, 2.0
14.18000, 2.0
14.20000, 6.0
14.22000, 6.0
14.24000, 2.0
14.26000, 2.0
14.28000, 2.0
14.30000, 1.0
14.32000, 4.0
14.34000, 6.0
14.36000, 3.0
14.38000, 1.0
14.40000, 4.0
14.42000, 6.0
14.44000, 5.0
14.46000, 3.0
14.48000, 3.0
14.50000, 3.0
14.52000, 2.0
14.54000, 3.0
14.56000, 4.0
14.58000, 5.0
14.60000, 3.0
14.62000, 2.0
14.64000, 2.0
14.66000, 1.0
14.68000, 1.0
14.70000, 3.0
14.72000, 4.0
14.74000, 3.0
14.76000, 3.0
14.78000, 1.0
14.80000, 2.0
14.82000, 4.0
14.84000, 3.0
14.86000, 2.0
14.88000, 2.0
14.90000, 1.0
14.92000, 2.0
14.94000, 1.0
14.96000, 1.0
14.98000, 1.0
15.00000, 0.0
15.02000, 1.0
15.04000, 1.0
15.06000, 1.0
15.08000, 0.0
15.10000, 0.0
15.12000, 0.0
15.14000, 0.0
15.16000, 1.0
15.18000, 1.0
15.20000, 1.0
15.22000, 0.0
15.24000, 0.0
15.26000, 0.0
15.28000, 0.0
15.30000, 0.0
15.32000, 0.0
15.34000, 0.0
15.36000, 0.0
15.38000, 0.0
15.40000, 0.0
15.42000, 0.0
15.44000, 0.0
15.46000, 0.0
15.48000, 0.0
15.50000, 0.0
15.52000, 0.0
15.54000, 0.0
15.56000, 0.0
15.58000, 0.0
15.60000, 0.0
15.62000, 0.0
15.64000, 0.0
15.66000, 0.0
15.68000, 0.0
15.70000, 0.0
15.72000, 0.0
15.74000, 0.0
15.76000, 0.0
15.78000, 0.0
15.80000, 0.0
15.82000, 0.0
15.84000, 0.0
15.86000, 0.0
15.88000, 0.0
15.90000, 0.0
15.92000, 0.0
15.94000, 0.0
15.96000, 0.0
15.98000, 0.0
16.00000, 0.0
16.02000, 0.0
16.04000, 0.0
16.06000, 0.0
16.08000, 0.0
16.10000, 0.0
16.12000, 0.0
16.14000, 0.0
16.16000, 0.0
16.18000, 0.0
16.20000, 0.0
16.22000, 0.0
16.24000, 0.0
16.26000, 0.0
16.28000, 0.0
16.30000, 0.0
16.32000, 0.0
16.34000, 0.0
16.36000, 0.0
16.38000, 0.0
16.40000, 1.0
16.42000, 0.0
16.44000, 0.0
16.46000, 0.0
16.48000, 0.0
16.50000, 0.0
16.52000, 0.0
16.54000, 0.0
16.56000, 0.0
16.58000, 0.0
16.60000, 0.0
16.62000, 0.0
16.64000, 0.0
16.66000, 0.0
16.68000, 0.0
16.70000, 0.0
16.72000, 0.0
16.74000, 0.0
16.76000, 0.0
16.78000, 0.0
16.80000, 0.0
16.82000, 0.0
16.84000, 0.0
16.86000, 0.0
16.88000, 0.0
16.90000, 0.0
16.92000, 0.0
16.94000, 0.0
16.96000, 0.0
16.98000, 0.0
17.00000, 0.0
17.02000, 0.0
17.04000, 0.0
17.06000, 0.0
17.08000, 0.0
17.10000, 0.0
17.12000, 0.0
17.14000, 0.0
17.16000, 0.0
17.18000, 0.0
17.20000, 0.0
17.22000, 0.0
17.24000, 0.0
17.26000, 0.0
17.28000, 0.0
17.30000, 0.0
17.32000, 0.0
17.34000, 0.0
17.36000, 0.0
17.38000, 0.0
17.40000, 0.0
17.42000, 0.0
17.44000, 0.0
17.46000, 0.0
17.48000, 0.0
17.50000, 0.0
17.52000, 0.0
17.54000, 0.0
17.56000, 0.0
17.58000, 0.0
17.60000, 0.0
17.62000, 0.0
17.64000, 0.0
17.66000, 0.0
17.68000, 0.0
17.70000, 0.0
17.72000, 0.0
17.74000, 0.0
17.76000, 0.0
17.78000, 0.0
17.80000, 0.0
17.82000, 0.0
17.84000, 0.0
17.86000, 0.0
17.88000, 0.0
17.90000, 0.0
17.92000, 0.0
17.94000, 0.0
17.96000, 0.0
17.98000, 0.0
18.00000, 0.0
18.02000, 0.0
18.04000, 0.0
18.06000, 0.0
18.08000, 0.0
18.10000, 0.0
18.12000, 0.0
18.14000, 0.0
18.16000, 0.0
18.18000, 0.0
18.20000, 0.0
18.22000, 0.0
18.24000, 0.0
18.26000, 0.0
18.28000, 0.0
18.30000, 0.0
18.32000, 0.0
18.34000, 0.0
18.36000, 0.0
18.38000, 0.0
18.40000, 0.0
18.42000, 0.0
18.44000, 0.0
18.46000, 0.0
18.48000, 0.0
18.50000, 0.0
18.52000, 0.0
18.54000, 0.0
18.56000, 0.0
18.58000, 0.0
18.60000, 0.0
18.62000, 0.0
18.64000, 0.0
18.66000, 0.0
18.68000, 0.0
18.70000, 0.0
18.72000, 0.0
18.74000, 0.0
18.76000, 0.0
18.78000, 0.0
18.80000, 0.0
18.82000, 0.0
18.84000, 0.0
18.86000, 0.0
18.88000, 0.0
18.90000, 0.0
18.92000, 0.0
18.94000, 0.0
18.96000, 0.0
18.98000, 0.0
19.00000, 0.0
19.02000, 0.0
19.04000, 0.0
19.06000, 0.0
19.08000, 0.0
19.10000, 0.0
19.12000, 0.0
19.14000, 0.0
19.16000, 0.0
19.18000, 0.0
19.20000, 0.0
19.22000, 0.0
19.24000, 0.0
19.26000, 0.0
19.28000, 0.0
19.30000, 0.0
19.32000, 0.0
19.34000, 0.0
19.36000, 0.0
19.38000, 0.0
19.40000, 0.0
19.42000, 0.0
19.44000, 0.0
19.46000, 0.0
19.48000, 0.0
19.50000, 0.0
19.52000, 0.0
19.54000, 0.0
19.56000, 0.0
19.58000, 0.0
19.60000, 0.0
19.62000, 0.0
19.64000, 0.0
19.66000, 0.0
19.68000, 0.0
19.70000, 0.0
19.72000, 0.0
19.74000, 0.0
19.76000, 0.0
19.78000, 0.0
19.80000, 0.0
19.82000, 0.0
19.84000, 0.0
19.86000, 0.0
19.88000, 0.0
19.90000, 0.0
19.92000, 0.0
19.94000, 0.0
19.96000, 0.0
19.98000, 0.0
20.00000, 0.0
20.02000, 0.0
20.04000, 0.0
20.06000, 0.0
20.08000, 0.0
20.10000, 0.0
20.12000, 0.0
20.14000, 0.0
20.16000, 0.0
20.18000, 0.0
20.20000, 0.0
20.22000, 0.0
20.24000, 0.0
20.26000, 0.0
#ENDOFDATA   :