File: Spectras 20250424/20250425_10K_H12_3.txt
#FORMAT      : EMSA/MAS Spectral Data File
#VERSION     : 1.0
#TITLE       : 20250425_10K_H12_3
#DATE        : 24-APR-2025
#TIME        : 09:36
#OWNER       :
#NPOINTS     : 2048.0
#NCOLUMNS    : 1.0
#XUNITS      : keV
#YUNITS      : counts
#DATATYPE    : XY
#XPERCHAN    : 0.005
#OFFSET      : -0.1
#SIGNALTYPE  : EDS
#CHOFFSET    : 20.0
#LIVETIME    : 60.0
#REALTIME    : 61.4461
#BEAMKV      : 10.0
#MAGCAM      : 4000.0
#XTILTSTGE   : 0.0
#AZIMANGLE   : 0.0
#ELEVANGLE   : 29.0
#XPOSITION mm: 0.7570
#YPOSITION mm: 0.1853
#ZPOSITION mm: 13.4437
##OXINSTPT   : 2
##OXINSTSTROB: 67.55
##OXINSTELEMS: 42,16,14,8
##OXINSTLABEL: 42, 2.293, Mo
##OXINSTLABEL: 42, 2.395, Mo
##OXINSTLABEL: 42, 2.120, Mo
##OXINSTLABEL: 42, 2.831, Mo
##OXINSTLABEL: 42, 2.016, Mo
##OXINSTLABEL: 42, 0.193, Mo
##OXINSTLABEL: 16, 2.308, S
##OXINSTLABEL: 16, 2.464, S
##OXINSTLABEL: 14, 1.740, Si
##OXINSTLABEL: 8, 0.525, O
#SPECTRUM    : Spectral Data Starts Here
-0.10000, 0.0
-0.09000, 1.0
-0.08000, 1.0
-0.07000, 2.0
-0.06000, 4.0
-0.05000, 12.0
-0.04000, 36.0
-0.03000, 73.0
-0.02000, 145.0
-0.01000, 242.0
0.00000, 387.0
0.01000, 591.0
0.02000, 785.0
0.03000, 968.0
0.04000, 1027.0
0.05000, 1111.0
0.06000, 1035.0
0.07000, 922.0
0.08000, 711.0
0.09000, 501.0
0.10000, 390.0
0.11000, 303.0
0.12000, 267.0
0.13000, 301.0
0.14000, 347.0
0.15000, 394.0
0.16000, 398.0
0.17000, 383.0
0.18000, 380.0
0.19000, 349.0
0.20000, 286.0
0.21000, 300.0
0.22000, 284.0
0.23000, 292.0
0.24000, 346.0
0.25000, 382.0
0.26000, 419.0
0.27000, 465.0
0.28000, 445.0
0.29000, 400.0
0.30000, 339.0
0.31000, 278.0
0.32000, 211.0
0.33000, 136.0
0.34000, 116.0
0.35000, 104.0
0.36000, 87.0
0.37000, 76.0
0.38000, 79.0
0.39000, 100.0
0.40000, 97.0
0.41000, 104.0
0.42000, 118.0
0.43000, 133.0
0.44000, 165.0
0.45000, 218.0
0.46000, 306.0
0.47000, 464.0
0.48000, 690.0
0.49000, 870.0
0.50000, 1086.0
0.51000, 1278.0
0.52000, 1345.0
0.53000, 1307.0
0.54000, 1218.0
0.55000, 1006.0
0.56000, 780.0
0.57000, 581.0
0.58000, 403.0
0.59000, 266.0
0.60000, 205.0
0.61000, 145.0
0.62000, 164.0
0.63000, 120.0
0.64000, 134.0
0.65000, 118.0
0.66000, 130.0
0.67000, 129.0
0.68000, 134.0
0.69000, 147.0
0.70000, 134.0
0.71000, 139.0
0.72000, 139.0
0.73000, 165.0
0.74000, 138.0
0.75000, 172.0
0.76000, 159.0
0.77000, 148.0
0.78000, 159.0
0.79000, 162.0
0.80000, 182.0
0.81000, 173.0
0.82000, 186.0
0.83000, 174.0
0.84000, 175.0
0.85000, 186.0
0.86000, 165.0
0.87000, 183.0
0.88000, 195.0
0.89000, 182.0
0.90000, 184.0
0.91000, 201.0
0.92000, 192.0
0.93000, 195.0
0.94000, 178.0
0.95000, 199.0
0.96000, 192.0
0.97000, 191.0
0.98000, 196.0
0.99000, 210.0
1.00000, 229.0
1.01000, 180.0
1.02000, 217.0
1.03000, 216.0
1.04000, 199.0
1.05000, 210.0
1.06000, 199.0
1.07000, 202.0
1.08000, 192.0
1.09000, 203.0
1.10000, 191.0
1.11000, 193.0
1.12000, 191.0
1.13000, 190.0
1.14000, 189.0
1.15000, 212.0
1.16000, 195.0
1.17000, 204.0
1.18000, 217.0
1.19000, 192.0
1.20000, 209.0
1.21000, 193.0
1.22000, 172.0
1.23000, 212.0
1.24000, 199.0
1.25000, 172.0
1.26000, 200.0
1.27000, 200.0
1.28000, 222.0
1.29000, 202.0
1.30000, 208.0
1.31000, 174.0
1.32000, 227.0
1.33000, 199.0
1.34000, 206.0
1.35000, 211.0
1.36000, 197.0
1.37000, 207.0
1.38000, 184.0
1.39000, 194.0
1.40000, 196.0
1.41000, 196.0
1.42000, 203.0
1.43000, 222.0
1.44000, 208.0
1.45000, 210.0
1.46000, 202.0
1.47000, 208.0
1.48000, 192.0
1.49000, 223.0
1.50000, 195.0
1.51000, 209.0
1.52000, 205.0
1.53000, 216.0
1.54000, 216.0
1.55000, 204.0
1.56000, 233.0
1.57000, 229.0
1.58000, 187.0
1.59000, 203.0
1.60000, 220.0
1.61000, 240.0
1.62000, 286.0
1.63000, 347.0
1.64000, 445.0
1.65000, 740.0
1.66000, 1078.0
1.67000, 1729.0
1.68000, 2552.0
1.69000, 3587.0
1.70000, 4698.0
1.71000, 5909.0
1.72000, 7056.0
1.73000, 7870.0
1.74000, 8281.0
1.75000, 8209.0
1.76000, 7547.0
1.77000, 6676.0
1.78000, 5332.0
1.79000, 4325.0
1.80000, 3299.0
1.81000, 2371.0
1.82000, 1695.0
1.83000, 1226.0
1.84000, 843.0
1.85000, 674.0
1.86000, 505.0
1.87000, 394.0
1.88000, 326.0
1.89000, 267.0
1.90000, 226.0
1.91000, 202.0
1.92000, 150.0
1.93000, 133.0
1.94000, 136.0
1.95000, 154.0
1.96000, 125.0
1.97000, 138.0
1.98000, 135.0
1.99000, 144.0
2.00000, 152.0
2.01000, 151.0
2.02000, 166.0
2.03000, 154.0
2.04000, 143.0
2.05000, 143.0
2.06000, 153.0
2.07000, 132.0
2.08000, 150.0
2.09000, 136.0
2.10000, 123.0
2.11000, 134.0
2.12000, 142.0
2.13000, 128.0
2.14000, 112.0
2.15000, 133.0
2.16000, 134.0
2.17000, 133.0
2.18000, 149.0
2.19000, 207.0
2.20000, 229.0
2.21000, 337.0
2.22000, 442.0
2.23000, 672.0
2.24000, 863.0
2.25000, 1144.0
2.26000, 1442.0
2.27000, 1779.0
2.28000, 2091.0
2.29000, 2308.0
2.30000, 2432.0
2.31000, 2477.0
2.32000, 2314.0
2.33000, 2253.0
2.34000, 1925.0
2.35000, 1704.0
2.36000, 1474.0
2.37000, 1193.0
2.38000, 987.0
2.39000, 874.0
2.40000, 711.0
2.41000, 681.0
2.42000, 570.0
2.43000, 514.0
2.44000, 480.0
2.45000, 438.0
2.46000, 398.0
2.47000, 361.0
2.48000, 344.0
2.49000, 341.0
2.50000, 269.0
2.51000, 242.0
2.52000, 225.0
2.53000, 173.0
2.54000, 162.0
2.55000, 143.0
2.56000, 153.0
2.57000, 123.0
2.58000, 122.0
2.59000, 98.0
2.60000, 108.0
2.61000, 100.0
2.62000, 95.0
2.63000, 95.0
2.64000, 89.0
2.65000, 85.0
2.66000, 76.0
2.67000, 90.0
2.68000, 96.0
2.69000, 69.0
2.70000, 90.0
2.71000, 81.0
2.72000, 71.0
2.73000, 77.0
2.74000, 69.0
2.75000, 83.0
2.76000, 76.0
2.77000, 77.0
2.78000, 71.0
2.79000, 78.0
2.80000, 84.0
2.81000, 80.0
2.82000, 81.0
2.83000, 80.0
2.84000, 71.0
2.85000, 85.0
2.86000, 95.0
2.87000, 79.0
2.88000, 76.0
2.89000, 71.0
2.90000, 71.0
2.91000, 70.0
2.92000, 74.0
2.93000, 55.0
2.94000, 53.0
2.95000, 64.0
2.96000, 65.0
2.97000, 57.0
2.98000, 67.0
2.99000, 66.0
3.00000, 49.0
3.01000, 76.0
3.02000, 68.0
3.03000, 74.0
3.04000, 52.0
3.05000, 67.0
3.06000, 54.0
3.07000, 64.0
3.08000, 60.0
3.09000, 57.0
3.10000, 78.0
3.11000, 63.0
3.12000, 78.0
3.13000, 64.0
3.14000, 58.0
3.15000, 68.0
3.16000, 68.0
3.17000, 56.0
3.18000, 60.0
3.19000, 73.0
3.20000, 70.0
3.21000, 56.0
3.22000, 66.0
3.23000, 62.0
3.24000, 71.0
3.25000, 50.0
3.26000, 66.0
3.27000, 56.0
3.28000, 75.0
3.29000, 61.0
3.30000, 59.0
3.31000, 50.0
3.32000, 60.0
3.33000, 59.0
3.34000, 58.0
3.35000, 64.0
3.36000, 71.0
3.37000, 47.0
3.38000, 71.0
3.39000, 54.0
3.40000, 67.0
3.41000, 62.0
3.42000, 64.0
3.43000, 66.0
3.44000, 54.0
3.45000, 71.0
3.46000, 63.0
3.47000, 63.0
3.48000, 82.0
3.49000, 76.0
3.50000, 59.0
3.51000, 60.0
3.52000, 62.0
3.53000, 64.0
3.54000, 69.0
3.55000, 58.0
3.56000, 39.0
3.57000, 67.0
3.58000, 55.0
3.59000, 65.0
3.60000, 50.0
3.61000, 57.0
3.62000, 59.0
3.63000, 61.0
3.64000, 58.0
3.65000, 54.0
3.66000, 44.0
3.67000, 64.0
3.68000, 56.0
3.69000, 59.0
3.70000, 26.0
3.71000, 63.0
3.72000, 55.0
3.73000, 57.0
3.74000, 55.0
3.75000, 51.0
3.76000, 52.0
3.77000, 48.0
3.78000, 54.0
3.79000, 40.0
3.80000, 53.0
3.81000, 48.0
3.82000, 63.0
3.83000, 57.0
3.84000, 50.0
3.85000, 43.0
3.86000, 55.0
3.87000, 52.0
3.88000, 53.0
3.89000, 57.0
3.90000, 41.0
3.91000, 49.0
3.92000, 49.0
3.93000, 52.0
3.94000, 49.0
3.95000, 55.0
3.96000, 53.0
3.97000, 50.0
3.98000, 52.0
3.99000, 41.0
4.00000, 46.0
4.01000, 49.0
4.02000, 39.0
4.03000, 45.0
4.04000, 54.0
4.05000, 48.0
4.06000, 39.0
4.07000, 47.0
4.08000, 42.0
4.09000, 47.0
4.10000, 37.0
4.11000, 65.0
4.12000, 49.0
4.13000, 48.0
4.14000, 52.0
4.15000, 44.0
4.16000, 43.0
4.17000, 44.0
4.18000, 45.0
4.19000, 40.0
4.20000, 39.0
4.21000, 49.0
4.22000, 55.0
4.23000, 50.0
4.24000, 42.0
4.25000, 35.0
4.26000, 43.0
4.27000, 32.0
4.28000, 38.0
4.29000, 41.0
4.30000, 36.0
4.31000, 45.0
4.32000, 46.0
4.33000, 43.0
4.34000, 44.0
4.35000, 33.0
4.36000, 34.0
4.37000, 35.0
4.38000, 32.0
4.39000, 36.0
4.40000, 41.0
4.41000, 45.0
4.42000, 35.0
4.43000, 42.0
4.44000, 43.0
4.45000, 38.0
4.46000, 39.0
4.47000, 42.0
4.48000, 30.0
4.49000, 42.0
4.50000, 37.0
4.51000, 43.0
4.52000, 37.0
4.53000, 47.0
4.54000, 48.0
4.55000, 44.0
4.56000, 37.0
4.57000, 39.0
4.58000, 36.0
4.59000, 36.0
4.60000, 40.0
4.61000, 42.0
4.62000, 40.0
4.63000, 43.0
4.64000, 42.0
4.65000, 45.0
4.66000, 43.0
4.67000, 37.0
4.68000, 34.0
4.69000, 33.0
4.70000, 35.0
4.71000, 29.0
4.72000, 46.0
4.73000, 37.0
4.74000, 39.0
4.75000, 31.0
4.76000, 38.0
4.77000, 33.0
4.78000, 33.0
4.79000, 33.0
4.80000, 34.0
4.81000, 35.0
4.82000, 27.0
4.83000, 33.0
4.84000, 25.0
4.85000, 29.0
4.86000, 26.0
4.87000, 22.0
4.88000, 28.0
4.89000, 27.0
4.90000, 31.0
4.91000, 35.0
4.92000, 33.0
4.93000, 33.0
4.94000, 28.0
4.95000, 40.0
4.96000, 34.0
4.97000, 34.0
4.98000, 41.0
4.99000, 32.0
5.00000, 34.0
5.01000, 29.0
5.02000, 23.0
5.03000, 27.0
5.04000, 23.0
5.05000, 40.0
5.06000, 27.0
5.07000, 39.0
5.08000, 32.0
5.09000, 33.0
5.10000, 26.0
5.11000, 23.0
5.12000, 38.0
5.13000, 23.0
5.14000, 28.0
5.15000, 26.0
5.16000, 35.0
5.17000, 30.0
5.18000, 27.0
5.19000, 38.0
5.20000, 32.0
5.21000, 29.0
5.22000, 28.0
5.23000, 39.0
5.24000, 36.0
5.25000, 19.0
5.26000, 33.0
5.27000, 24.0
5.28000, 35.0
5.29000, 27.0
5.30000, 34.0
5.31000, 18.0
5.32000, 26.0
5.33000, 23.0
5.34000, 24.0
5.35000, 38.0
5.36000, 32.0
5.37000, 26.0
5.38000, 19.0
5.39000, 22.0
5.40000, 20.0
5.41000, 31.0
5.42000, 20.0
5.43000, 28.0
5.44000, 31.0
5.45000, 25.0
5.46000, 23.0
5.47000, 25.0
5.48000, 23.0
5.49000, 24.0
5.50000, 28.0
5.51000, 25.0
5.52000, 26.0
5.53000, 22.0
5.54000, 22.0
5.55000, 23.0
5.56000, 29.0
5.57000, 23.0
5.58000, 34.0
5.59000, 31.0
5.60000, 30.0
5.61000, 28.0
5.62000, 13.0
5.63000, 22.0
5.64000, 24.0
5.65000, 17.0
5.66000, 25.0
5.67000, 33.0
5.68000, 20.0
5.69000, 26.0
5.70000, 21.0
5.71000, 26.0
5.72000, 23.0
5.73000, 23.0
5.74000, 25.0
5.75000, 24.0
5.76000, 24.0
5.77000, 24.0
5.78000, 19.0
5.79000, 30.0
5.80000, 23.0
5.81000, 25.0
5.82000, 25.0
5.83000, 20.0
5.84000, 26.0
5.85000, 24.0
5.86000, 26.0
5.87000, 14.0
5.88000, 17.0
5.89000, 21.0
5.90000, 19.0
5.91000, 36.0
5.92000, 19.0
5.93000, 24.0
5.94000, 33.0
5.95000, 11.0
5.96000, 19.0
5.97000, 21.0
5.98000, 26.0
5.99000, 28.0
6.00000, 20.0
6.01000, 25.0
6.02000, 27.0
6.03000, 19.0
6.04000, 23.0
6.05000, 13.0
6.06000, 23.0
6.07000, 26.0
6.08000, 24.0
6.09000, 17.0
6.10000, 25.0
6.11000, 15.0
6.12000, 24.0
6.13000, 23.0
6.14000, 18.0
6.15000, 26.0
6.16000, 15.0
6.17000, 21.0
6.18000, 19.0
6.19000, 24.0
6.20000, 19.0
6.21000, 18.0
6.22000, 14.0
6.23000, 16.0
6.24000, 20.0
6.25000, 25.0
6.26000, 31.0
6.27000, 18.0
6.28000, 19.0
6.29000, 21.0
6.30000, 29.0
6.31000, 20.0
6.32000, 18.0
6.33000, 21.0
6.34000, 14.0
6.35000, 18.0
6.36000, 16.0
6.37000, 16.0
6.38000, 26.0
6.39000, 16.0
6.40000, 14.0
6.41000, 21.0
6.42000, 15.0
6.43000, 20.0
6.44000, 28.0
6.45000, 9.0
6.46000, 16.0
6.47000, 15.0
6.48000, 19.0
6.49000, 15.0
6.50000, 13.0
6.51000, 17.0
6.52000, 22.0
6.53000, 10.0
6.54000, 13.0
6.55000, 18.0
6.56000, 21.0
6.57000, 21.0
6.58000, 18.0
6.59000, 12.0
6.60000, 18.0
6.61000, 27.0
6.62000, 24.0
6.63000, 18.0
6.64000, 20.0
6.65000, 20.0
6.66000, 15.0
6.67000, 21.0
6.68000, 12.0
6.69000, 22.0
6.70000, 24.0
6.71000, 22.0
6.72000, 22.0
6.73000, 13.0
6.74000, 18.0
6.75000, 14.0
6.76000, 12.0
6.77000, 16.0
6.78000, 12.0
6.79000, 19.0
6.80000, 12.0
6.81000, 15.0
6.82000, 14.0
6.83000, 16.0
6.84000, 21.0
6.85000, 14.0
6.86000, 21.0
6.87000, 13.0
6.88000, 18.0
6.89000, 20.0
6.90000, 23.0
6.91000, 18.0
6.92000, 15.0
6.93000, 12.0
6.94000, 15.0
6.95000, 15.0
6.96000, 18.0
6.97000, 13.0
6.98000, 21.0
6.99000, 11.0
7.00000, 14.0
7.01000, 14.0
7.02000, 9.0
7.03000, 17.0
7.04000, 16.0
7.05000, 16.0
7.06000, 18.0
7.07000, 18.0
7.08000, 11.0
7.09000, 16.0
7.10000, 18.0
7.11000, 15.0
7.12000, 16.0
7.13000, 22.0
7.14000, 11.0
7.15000, 13.0
7.16000, 19.0
7.17000, 12.0
7.18000, 16.0
7.19000, 15.0
7.20000, 12.0
7.21000, 10.0
7.22000, 14.0
7.23000, 18.0
7.24000, 15.0
7.25000, 19.0
7.26000, 9.0
7.27000, 12.0
7.28000, 4.0
7.29000, 12.0
7.30000, 15.0
7.31000, 15.0
7.32000, 15.0
7.33000, 13.0
7.34000, 7.0
7.35000, 13.0
7.36000, 15.0
7.37000, 18.0
7.38000, 10.0
7.39000, 9.0
7.40000, 12.0
7.41000, 14.0
7.42000, 12.0
7.43000, 6.0
7.44000, 15.0
7.45000, 11.0
7.46000, 16.0
7.47000, 7.0
7.48000, 8.0
7.49000, 14.0
7.50000, 12.0
7.51000, 17.0
7.52000, 15.0
7.53000, 10.0
7.54000, 14.0
7.55000, 17.0
7.56000, 7.0
7.57000, 11.0
7.58000, 17.0
7.59000, 9.0
7.60000, 10.0
7.61000, 11.0
7.62000, 8.0
7.63000, 10.0
7.64000, 12.0
7.65000, 18.0
7.66000, 9.0
7.67000, 9.0
7.68000, 12.0
7.69000, 12.0
7.70000, 12.0
7.71000, 15.0
7.72000, 6.0
7.73000, 6.0
7.74000, 18.0
7.75000, 6.0
7.76000, 8.0
7.77000, 13.0
7.78000, 12.0
7.79000, 11.0
7.80000, 12.0
7.81000, 16.0
7.82000, 11.0
7.83000, 15.0
7.84000, 8.0
7.85000, 8.0
7.86000, 6.0
7.87000, 13.0
7.88000, 6.0
7.89000, 10.0
7.90000, 10.0
7.91000, 14.0
7.92000, 10.0
7.93000, 10.0
7.94000, 14.0
7.95000, 6.0
7.96000, 6.0
7.97000, 8.0
7.98000, 9.0
7.99000, 3.0
8.00000, 7.0
8.01000, 11.0
8.02000, 8.0
8.03000, 6.0
8.04000, 3.0
8.05000, 13.0
8.06000, 7.0
8.07000, 14.0
8.08000, 6.0
8.09000, 11.0
8.10000, 12.0
8.11000, 8.0
8.12000, 6.0
8.13000, 14.0
8.14000, 6.0
8.15000, 15.0
8.16000, 10.0
8.17000, 11.0
8.18000, 8.0
8.19000, 7.0
8.20000, 10.0
8.21000, 9.0
8.22000, 13.0
8.23000, 14.0
8.24000, 8.0
8.25000, 9.0
8.26000, 10.0
8.27000, 9.0
8.28000, 7.0
8.29000, 11.0
8.30000, 6.0
8.31000, 9.0
8.32000, 6.0
8.33000, 9.0
8.34000, 7.0
8.35000, 2.0
8.36000, 10.0
8.37000, 6.0
8.38000, 11.0
8.39000, 9.0
8.40000, 4.0
8.41000, 12.0
8.42000, 7.0
8.43000, 6.0
8.44000, 6.0
8.45000, 9.0
8.46000, 4.0
8.47000, 5.0
8.48000, 7.0
8.49000, 10.0
8.50000, 6.0
8.51000, 12.0
8.52000, 8.0
8.53000, 7.0
8.54000, 12.0
8.55000, 13.0
8.56000, 9.0
8.57000, 13.0
8.58000, 10.0
8.59000, 5.0
8.60000, 6.0
8.61000, 5.0
8.62000, 9.0
8.63000, 12.0
8.64000, 9.0
8.65000, 10.0
8.66000, 3.0
8.67000, 9.0
8.68000, 7.0
8.69000, 7.0
8.70000, 7.0
8.71000, 6.0
8.72000, 7.0
8.73000, 8.0
8.74000, 9.0
8.75000, 8.0
8.76000, 11.0
8.77000, 7.0
8.78000, 2.0
8.79000, 10.0
8.80000, 10.0
8.81000, 3.0
8.82000, 5.0
8.83000, 10.0
8.84000, 6.0
8.85000, 10.0
8.86000, 5.0
8.87000, 5.0
8.88000, 4.0
8.89000, 2.0
8.90000, 9.0
8.91000, 7.0
8.92000, 6.0
8.93000, 6.0
8.94000, 8.0
8.95000, 6.0
8.96000, 10.0
8.97000, 4.0
8.98000, 8.0
8.99000, 6.0
9.00000, 4.0
9.01000, 3.0
9.02000, 6.0
9.03000, 4.0
9.04000, 9.0
9.05000, 4.0
9.06000, 10.0
9.07000, 10.0
9.08000, 7.0
9.09000, 7.0
9.10000, 7.0
9.11000, 9.0
9.12000, 3.0
9.13000, 4.0
9.14000, 5.0
9.15000, 13.0
9.16000, 7.0
9.17000, 8.0
9.18000, 5.0
9.19000, 4.0
9.20000, 2.0
9.21000, 1.0
9.22000, 5.0
9.23000, 3.0
9.24000, 4.0
9.25000, 7.0
9.26000, 4.0
9.27000, 1.0
9.28000, 1.0
9.29000, 2.0
9.30000, 7.0
9.31000, 5.0
9.32000, 2.0
9.33000, 8.0
9.34000, 6.0
9.35000, 3.0
9.36000, 3.0
9.37000, 6.0
9.38000, 3.0
9.39000, 5.0
9.40000, 3.0
9.41000, 2.0
9.42000, 9.0
9.43000, 7.0
9.44000, 6.0
9.45000, 5.0
9.46000, 4.0
9.47000, 3.0
9.48000, 2.0
9.49000, 5.0
9.50000, 5.0
9.51000, 2.0
9.52000, 2.0
9.53000, 3.0
9.54000, 3.0
9.55000, 3.0
9.56000, 2.0
9.57000, 2.0
9.58000, 7.0
9.59000, 4.0
9.60000, 5.0
9.61000, 2.0
9.62000, 4.0
9.63000, 2.0
9.64000, 2.0
9.65000, 7.0
9.66000, 1.0
9.67000, 1.0
9.68000, 2.0
9.69000, 3.0
9.70000, 5.0
9.71000, 3.0
9.72000, 3.0
9.73000, 1.0
9.74000, 2.0
9.75000, 2.0
9.76000, 1.0
9.77000, 4.0
9.78000, 3.0
9.79000, 0.0
9.80000, 3.0
9.81000, 0.0
9.82000, 4.0
9.83000, 2.0
9.84000, 3.0
9.85000, 3.0
9.86000, 5.0
9.87000, 1.0
9.88000, 6.0
9.89000, 2.0
9.90000, 2.0
9.91000, 4.0
9.92000, 6.0
9.93000, 1.0
9.94000, 2.0
9.95000, 1.0
9.96000, 1.0
9.97000, 0.0
9.98000, 3.0
9.99000, 0.0
10.00000, 0.0
10.01000, 1.0
10.02000, 3.0
10.03000, 2.0
10.04000, 2.0
10.05000, 0.0
10.06000, 0.0
10.07000, 0.0
10.08000, 0.0
10.09000, 0.0
10.10000, 0.0
10.11000, 0.0
10.12000, 0.0
10.13000, 0.0
10.13500, 0.0
#ENDOFDATA   :