File: Spectras 20250424/20250425_10K_G10_1.txt
#FORMAT      : EMSA/MAS Spectral Data File
#VERSION     : 1.0
#TITLE       : 20250425_10K_G10_1
#DATE        : 24-APR-2025
#TIME        : 09:57
#OWNER       :
#NPOINTS     : 2048.0
#NCOLUMNS    : 1.0
#XUNITS      : keV
#YUNITS      : counts
#DATATYPE    : XY
#XPERCHAN    : 0.005
#OFFSET      : -0.1
#SIGNALTYPE  : EDS
#CHOFFSET    : 20.0
#LIVETIME    : 60.0
#REALTIME    : 61.8877
#BEAMKV      : 10.0
#MAGCAM      : 3300.0
#XTILTSTGE   : 0.0
#AZIMANGLE   : 0.0
#ELEVANGLE   : 29.0
#XPOSITION mm: 0.5138
#YPOSITION mm: -0.6150
#ZPOSITION mm: 13.5353
##OXINSTPT   : 2
##OXINSTSTROB: 67.49
#SPECTRUM    : Spectral Data Starts Here
-0.10000, 0.0
-0.09000, 0.0
-0.08000, 0.0
-0.07000, 1.0
-0.06000, 5.0
-0.05000, 11.0
-0.04000, 37.0
-0.03000, 71.0
-0.02000, 129.0
-0.01000, 252.0
0.00000, 394.0
0.01000, 538.0
0.02000, 757.0
0.03000, 890.0
0.04000, 1007.0
0.05000, 1069.0
0.06000, 972.0
0.07000, 814.0
0.08000, 637.0
0.09000, 457.0
0.10000, 281.0
0.11000, 190.0
0.12000, 95.0
0.13000, 84.0
0.14000, 65.0
0.15000, 51.0
0.16000, 56.0
0.17000, 62.0
0.18000, 59.0
0.19000, 60.0
0.20000, 58.0
0.21000, 66.0
0.22000, 69.0
0.23000, 86.0
0.24000, 95.0
0.25000, 108.0
0.26000, 122.0
0.27000, 142.0
0.28000, 128.0
0.29000, 128.0
0.30000, 105.0
0.31000, 108.0
0.32000, 88.0
0.33000, 76.0
0.34000, 74.0
0.35000, 82.0
0.36000, 89.0
0.37000, 89.0
0.38000, 101.0
0.39000, 128.0
0.40000, 142.0
0.41000, 171.0
0.42000, 263.0
0.43000, 327.0
0.44000, 506.0
0.45000, 833.0
0.46000, 1348.0
0.47000, 2022.0
0.48000, 2847.0
0.49000, 4033.0
0.50000, 4956.0
0.51000, 5897.0
0.52000, 6188.0
0.53000, 6000.0
0.54000, 5430.0
0.55000, 4396.0
0.56000, 3246.0
0.57000, 2270.0
0.58000, 1386.0
0.59000, 852.0
0.60000, 519.0
0.61000, 284.0
0.62000, 184.0
0.63000, 127.0
0.64000, 94.0
0.65000, 96.0
0.66000, 97.0
0.67000, 103.0
0.68000, 113.0
0.69000, 116.0
0.70000, 130.0
0.71000, 127.0
0.72000, 120.0
0.73000, 142.0
0.74000, 124.0
0.75000, 143.0
0.76000, 132.0
0.77000, 147.0
0.78000, 133.0
0.79000, 152.0
0.80000, 155.0
0.81000, 151.0
0.82000, 153.0
0.83000, 154.0
0.84000, 175.0
0.85000, 163.0
0.86000, 165.0
0.87000, 156.0
0.88000, 156.0
0.89000, 166.0
0.90000, 174.0
0.91000, 184.0
0.92000, 181.0
0.93000, 163.0
0.94000, 203.0
0.95000, 185.0
0.96000, 195.0
0.97000, 198.0
0.98000, 192.0
0.99000, 191.0
1.00000, 199.0
1.01000, 190.0
1.02000, 193.0
1.03000, 211.0
1.04000, 195.0
1.05000, 190.0
1.06000, 210.0
1.07000, 202.0
1.08000, 216.0
1.09000, 202.0
1.10000, 198.0
1.11000, 196.0
1.12000, 188.0
1.13000, 195.0
1.14000, 179.0
1.15000, 213.0
1.16000, 190.0
1.17000, 209.0
1.18000, 214.0
1.19000, 199.0
1.20000, 214.0
1.21000, 207.0
1.22000, 196.0
1.23000, 202.0
1.24000, 191.0
1.25000, 186.0
1.26000, 198.0
1.27000, 200.0
1.28000, 197.0
1.29000, 222.0
1.30000, 216.0
1.31000, 190.0
1.32000, 204.0
1.33000, 181.0
1.34000, 219.0
1.35000, 180.0
1.36000, 202.0
1.37000, 209.0
1.38000, 212.0
1.39000, 200.0
1.40000, 200.0
1.41000, 196.0
1.42000, 200.0
1.43000, 193.0
1.44000, 206.0
1.45000, 203.0
1.46000, 218.0
1.47000, 222.0
1.48000, 213.0
1.49000, 220.0
1.50000, 210.0
1.51000, 242.0
1.52000, 247.0
1.53000, 243.0
1.54000, 249.0
1.55000, 238.0
1.56000, 244.0
1.57000, 258.0
1.58000, 237.0
1.59000, 244.0
1.60000, 265.0
1.61000, 287.0
1.62000, 365.0
1.63000, 494.0
1.64000, 775.0
1.65000, 1243.0
1.66000, 1926.0
1.67000, 3051.0
1.68000, 4640.0
1.69000, 6480.0
1.70000, 8697.0
1.71000, 10794.0
1.72000, 12684.0
1.73000, 14298.0
1.74000, 14745.0
1.75000, 14919.0
1.76000, 13655.0
1.77000, 11927.0
1.78000, 9910.0
1.79000, 7617.0
1.80000, 5829.0
1.81000, 4157.0
1.82000, 2938.0
1.83000, 2038.0
1.84000, 1462.0
1.85000, 1110.0
1.86000, 782.0
1.87000, 623.0
1.88000, 511.0
1.89000, 354.0
1.90000, 269.0
1.91000, 209.0
1.92000, 171.0
1.93000, 143.0
1.94000, 119.0
1.95000, 115.0
1.96000, 96.0
1.97000, 96.0
1.98000, 74.0
1.99000, 86.0
2.00000, 89.0
2.01000, 94.0
2.02000, 87.0
2.03000, 84.0
2.04000, 77.0
2.05000, 100.0
2.06000, 85.0
2.07000, 91.0
2.08000, 79.0
2.09000, 86.0
2.10000, 94.0
2.11000, 79.0
2.12000, 82.0
2.13000, 100.0
2.14000, 86.0
2.15000, 94.0
2.16000, 85.0
2.17000, 90.0
2.18000, 84.0
2.19000, 77.0
2.20000, 94.0
2.21000, 92.0
2.22000, 88.0
2.23000, 107.0
2.24000, 99.0
2.25000, 106.0
2.26000, 144.0
2.27000, 129.0
2.28000, 138.0
2.29000, 136.0
2.30000, 118.0
2.31000, 136.0
2.32000, 114.0
2.33000, 113.0
2.34000, 115.0
2.35000, 109.0
2.36000, 107.0
2.37000, 109.0
2.38000, 94.0
2.39000, 88.0
2.40000, 82.0
2.41000, 83.0
2.42000, 86.0
2.43000, 89.0
2.44000, 87.0
2.45000, 92.0
2.46000, 76.0
2.47000, 94.0
2.48000, 80.0
2.49000, 79.0
2.50000, 79.0
2.51000, 89.0
2.52000, 85.0
2.53000, 83.0
2.54000, 88.0
2.55000, 79.0
2.56000, 88.0
2.57000, 84.0
2.58000, 69.0
2.59000, 73.0
2.60000, 86.0
2.61000, 81.0
2.62000, 74.0
2.63000, 74.0
2.64000, 90.0
2.65000, 75.0
2.66000, 78.0
2.67000, 74.0
2.68000, 69.0
2.69000, 71.0
2.70000, 73.0
2.71000, 77.0
2.72000, 82.0
2.73000, 76.0
2.74000, 74.0
2.75000, 66.0
2.76000, 69.0
2.77000, 76.0
2.78000, 68.0
2.79000, 70.0
2.80000, 61.0
2.81000, 76.0
2.82000, 78.0
2.83000, 61.0
2.84000, 60.0
2.85000, 79.0
2.86000, 74.0
2.87000, 73.0
2.88000, 66.0
2.89000, 66.0
2.90000, 66.0
2.91000, 57.0
2.92000, 75.0
2.93000, 77.0
2.94000, 50.0
2.95000, 71.0
2.96000, 84.0
2.97000, 67.0
2.98000, 62.0
2.99000, 71.0
3.00000, 60.0
3.01000, 63.0
3.02000, 76.0
3.03000, 79.0
3.04000, 52.0
3.05000, 67.0
3.06000, 65.0
3.07000, 62.0
3.08000, 63.0
3.09000, 70.0
3.10000, 46.0
3.11000, 67.0
3.12000, 64.0
3.13000, 59.0
3.14000, 61.0
3.15000, 65.0
3.16000, 70.0
3.17000, 70.0
3.18000, 58.0
3.19000, 63.0
3.20000, 58.0
3.21000, 64.0
3.22000, 41.0
3.23000, 62.0
3.24000, 72.0
3.25000, 61.0
3.26000, 52.0
3.27000, 63.0
3.28000, 63.0
3.29000, 50.0
3.30000, 70.0
3.31000, 69.0
3.32000, 61.0
3.33000, 51.0
3.34000, 58.0
3.35000, 73.0
3.36000, 69.0
3.37000, 57.0
3.38000, 57.0
3.39000, 53.0
3.40000, 55.0
3.41000, 58.0
3.42000, 67.0
3.43000, 76.0
3.44000, 66.0
3.45000, 83.0
3.46000, 104.0
3.47000, 64.0
3.48000, 86.0
3.49000, 77.0
3.50000, 79.0
3.51000, 64.0
3.52000, 77.0
3.53000, 82.0
3.54000, 74.0
3.55000, 60.0
3.56000, 64.0
3.57000, 62.0
3.58000, 64.0
3.59000, 62.0
3.60000, 59.0
3.61000, 51.0
3.62000, 66.0
3.63000, 48.0
3.64000, 43.0
3.65000, 59.0
3.66000, 57.0
3.67000, 45.0
3.68000, 42.0
3.69000, 46.0
3.70000, 47.0
3.71000, 39.0
3.72000, 47.0
3.73000, 43.0
3.74000, 64.0
3.75000, 56.0
3.76000, 48.0
3.77000, 43.0
3.78000, 33.0
3.79000, 52.0
3.80000, 58.0
3.81000, 41.0
3.82000, 38.0
3.83000, 42.0
3.84000, 42.0
3.85000, 38.0
3.86000, 47.0
3.87000, 47.0
3.88000, 48.0
3.89000, 41.0
3.90000, 47.0
3.91000, 50.0
3.92000, 42.0
3.93000, 46.0
3.94000, 51.0
3.95000, 47.0
3.96000, 38.0
3.97000, 47.0
3.98000, 41.0
3.99000, 47.0
4.00000, 47.0
4.01000, 39.0
4.02000, 34.0
4.03000, 32.0
4.04000, 39.0
4.05000, 44.0
4.06000, 42.0
4.07000, 48.0
4.08000, 49.0
4.09000, 40.0
4.10000, 45.0
4.11000, 54.0
4.12000, 44.0
4.13000, 65.0
4.14000, 38.0
4.15000, 40.0
4.16000, 36.0
4.17000, 32.0
4.18000, 49.0
4.19000, 37.0
4.20000, 37.0
4.21000, 45.0
4.22000, 41.0
4.23000, 40.0
4.24000, 35.0
4.25000, 37.0
4.26000, 44.0
4.27000, 22.0
4.28000, 44.0
4.29000, 35.0
4.30000, 35.0
4.31000, 46.0
4.32000, 35.0
4.33000, 39.0
4.34000, 35.0
4.35000, 34.0
4.36000, 40.0
4.37000, 35.0
4.38000, 33.0
4.39000, 28.0
4.40000, 34.0
4.41000, 52.0
4.42000, 36.0
4.43000, 38.0
4.44000, 40.0
4.45000, 49.0
4.46000, 32.0
4.47000, 32.0
4.48000, 42.0
4.49000, 29.0
4.50000, 44.0
4.51000, 32.0
4.52000, 37.0
4.53000, 39.0
4.54000, 35.0
4.55000, 39.0
4.56000, 34.0
4.57000, 40.0
4.58000, 38.0
4.59000, 31.0
4.60000, 37.0
4.61000, 33.0
4.62000, 36.0
4.63000, 34.0
4.64000, 33.0
4.65000, 40.0
4.66000, 35.0
4.67000, 28.0
4.68000, 33.0
4.69000, 41.0
4.70000, 36.0
4.71000, 27.0
4.72000, 25.0
4.73000, 32.0
4.74000, 39.0
4.75000, 40.0
4.76000, 38.0
4.77000, 33.0
4.78000, 33.0
4.79000, 26.0
4.80000, 28.0
4.81000, 39.0
4.82000, 34.0
4.83000, 31.0
4.84000, 38.0
4.85000, 25.0
4.86000, 35.0
4.87000, 35.0
4.88000, 38.0
4.89000, 31.0
4.90000, 29.0
4.91000, 28.0
4.92000, 27.0
4.93000, 32.0
4.94000, 31.0
4.95000, 28.0
4.96000, 33.0
4.97000, 26.0
4.98000, 30.0
4.99000, 25.0
5.00000, 31.0
5.01000, 30.0
5.02000, 29.0
5.03000, 28.0
5.04000, 26.0
5.05000, 26.0
5.06000, 27.0
5.07000, 31.0
5.08000, 21.0
5.09000, 20.0
5.10000, 19.0
5.11000, 37.0
5.12000, 24.0
5.13000, 30.0
5.14000, 23.0
5.15000, 24.0
5.16000, 27.0
5.17000, 29.0
5.18000, 18.0
5.19000, 26.0
5.20000, 28.0
5.21000, 27.0
5.22000, 31.0
5.23000, 24.0
5.24000, 26.0
5.25000, 21.0
5.26000, 27.0
5.27000, 25.0
5.28000, 28.0
5.29000, 33.0
5.30000, 25.0
5.31000, 26.0
5.32000, 27.0
5.33000, 21.0
5.34000, 30.0
5.35000, 28.0
5.36000, 17.0
5.37000, 25.0
5.38000, 25.0
5.39000, 22.0
5.40000, 23.0
5.41000, 31.0
5.42000, 15.0
5.43000, 21.0
5.44000, 20.0
5.45000, 23.0
5.46000, 28.0
5.47000, 21.0
5.48000, 21.0
5.49000, 21.0
5.50000, 30.0
5.51000, 26.0
5.52000, 23.0
5.53000, 27.0
5.54000, 19.0
5.55000, 22.0
5.56000, 19.0
5.57000, 21.0
5.58000, 19.0
5.59000, 16.0
5.60000, 14.0
5.61000, 18.0
5.62000, 25.0
5.63000, 17.0
5.64000, 22.0
5.65000, 25.0
5.66000, 27.0
5.67000, 16.0
5.68000, 20.0
5.69000, 20.0
5.70000, 22.0
5.71000, 29.0
5.72000, 18.0
5.73000, 21.0
5.74000, 24.0
5.75000, 11.0
5.76000, 20.0
5.77000, 15.0
5.78000, 11.0
5.79000, 19.0
5.80000, 21.0
5.81000, 20.0
5.82000, 23.0
5.83000, 16.0
5.84000, 24.0
5.85000, 22.0
5.86000, 15.0
5.87000, 15.0
5.88000, 16.0
5.89000, 22.0
5.90000, 10.0
5.91000, 27.0
5.92000, 20.0
5.93000, 22.0
5.94000, 21.0
5.95000, 16.0
5.96000, 17.0
5.97000, 18.0
5.98000, 18.0
5.99000, 22.0
6.00000, 17.0
6.01000, 18.0
6.02000, 16.0
6.03000, 17.0
6.04000, 25.0
6.05000, 19.0
6.06000, 28.0
6.07000, 14.0
6.08000, 21.0
6.09000, 20.0
6.10000, 14.0
6.11000, 16.0
6.12000, 26.0
6.13000, 15.0
6.14000, 17.0
6.15000, 23.0
6.16000, 11.0
6.17000, 19.0
6.18000, 21.0
6.19000, 9.0
6.20000, 16.0
6.21000, 13.0
6.22000, 17.0
6.23000, 10.0
6.24000, 16.0
6.25000, 20.0
6.26000, 16.0
6.27000, 20.0
6.28000, 19.0
6.29000, 22.0
6.30000, 11.0
6.31000, 20.0
6.32000, 21.0
6.33000, 10.0
6.34000, 19.0
6.35000, 13.0
6.36000, 19.0
6.37000, 14.0
6.38000, 13.0
6.39000, 18.0
6.40000, 15.0
6.41000, 16.0
6.42000, 13.0
6.43000, 15.0
6.44000, 15.0
6.45000, 12.0
6.46000, 13.0
6.47000, 13.0
6.48000, 7.0
6.49000, 16.0
6.50000, 13.0
6.51000, 14.0
6.52000, 17.0
6.53000, 21.0
6.54000, 19.0
6.55000, 13.0
6.56000, 20.0
6.57000, 15.0
6.58000, 10.0
6.59000, 18.0
6.60000, 20.0
6.61000, 15.0
6.62000, 11.0
6.63000, 12.0
6.64000, 15.0
6.65000, 11.0
6.66000, 7.0
6.67000, 9.0
6.68000, 15.0
6.69000, 12.0
6.70000, 11.0
6.71000, 18.0
6.72000, 15.0
6.73000, 11.0
6.74000, 10.0
6.75000, 7.0
6.76000, 12.0
6.77000, 14.0
6.78000, 12.0
6.79000, 16.0
6.80000, 17.0
6.81000, 13.0
6.82000, 13.0
6.83000, 11.0
6.84000, 10.0
6.85000, 12.0
6.86000, 13.0
6.87000, 13.0
6.88000, 11.0
6.89000, 9.0
6.90000, 7.0
6.91000, 9.0
6.92000, 16.0
6.93000, 14.0
6.94000, 15.0
6.95000, 5.0
6.96000, 17.0
6.97000, 9.0
6.98000, 12.0
6.99000, 10.0
7.00000, 8.0
7.01000, 11.0
7.02000, 12.0
7.03000, 12.0
7.04000, 16.0
7.05000, 9.0
7.06000, 15.0
7.07000, 9.0
7.08000, 15.0
7.09000, 10.0
7.10000, 12.0
7.11000, 5.0
7.12000, 11.0
7.13000, 11.0
7.14000, 14.0
7.15000, 8.0
7.16000, 13.0
7.17000, 10.0
7.18000, 16.0
7.19000, 7.0
7.20000, 13.0
7.21000, 11.0
7.22000, 9.0
7.23000, 10.0
7.24000, 12.0
7.25000, 8.0
7.26000, 9.0
7.27000, 13.0
7.28000, 7.0
7.29000, 10.0
7.30000, 7.0
7.31000, 7.0
7.32000, 11.0
7.33000, 9.0
7.34000, 6.0
7.35000, 8.0
7.36000, 4.0
7.37000, 16.0
7.38000, 13.0
7.39000, 10.0
7.40000, 6.0
7.41000, 9.0
7.42000, 10.0
7.43000, 10.0
7.44000, 10.0
7.45000, 7.0
7.46000, 8.0
7.47000, 13.0
7.48000, 6.0
7.49000, 10.0
7.50000, 14.0
7.51000, 7.0
7.52000, 12.0
7.53000, 10.0
7.54000, 10.0
7.55000, 6.0
7.56000, 16.0
7.57000, 6.0
7.58000, 6.0
7.59000, 2.0
7.60000, 8.0
7.61000, 12.0
7.62000, 10.0
7.63000, 7.0
7.64000, 5.0
7.65000, 11.0
7.66000, 4.0
7.67000, 9.0
7.68000, 7.0
7.69000, 5.0
7.70000, 3.0
7.71000, 7.0
7.72000, 5.0
7.73000, 2.0
7.74000, 9.0
7.75000, 10.0
7.76000, 2.0
7.77000, 6.0
7.78000, 7.0
7.79000, 7.0
7.80000, 7.0
7.81000, 9.0
7.82000, 14.0
7.83000, 6.0
7.84000, 8.0
7.85000, 10.0
7.86000, 8.0
7.87000, 5.0
7.88000, 8.0
7.89000, 6.0
7.90000, 7.0
7.91000, 12.0
7.92000, 5.0
7.93000, 9.0
7.94000, 8.0
7.95000, 8.0
7.96000, 6.0
7.97000, 3.0
7.98000, 10.0
7.99000, 10.0
8.00000, 9.0
8.01000, 8.0
8.02000, 2.0
8.03000, 10.0
8.04000, 4.0
8.05000, 9.0
8.06000, 3.0
8.07000, 6.0
8.08000, 2.0
8.09000, 5.0
8.10000, 9.0
8.11000, 10.0
8.12000, 7.0
8.13000, 7.0
8.14000, 5.0
8.15000, 6.0
8.16000, 2.0
8.17000, 5.0
8.18000, 6.0
8.19000, 9.0
8.20000, 6.0
8.21000, 4.0
8.22000, 5.0
8.23000, 9.0
8.24000, 7.0
8.25000, 4.0
8.26000, 7.0
8.27000, 4.0
8.28000, 8.0
8.29000, 7.0
8.30000, 8.0
8.31000, 7.0
8.32000, 3.0
8.33000, 2.0
8.34000, 1.0
8.35000, 4.0
8.36000, 8.0
8.37000, 5.0
8.38000, 5.0
8.39000, 4.0
8.40000, 5.0
8.41000, 3.0
8.42000, 6.0
8.43000, 8.0
8.44000, 5.0
8.45000, 2.0
8.46000, 1.0
8.47000, 2.0
8.48000, 4.0
8.49000, 4.0
8.50000, 5.0
8.51000, 5.0
8.52000, 4.0
8.53000, 4.0
8.54000, 3.0
8.55000, 8.0
8.56000, 5.0
8.57000, 12.0
8.58000, 6.0
8.59000, 3.0
8.60000, 4.0
8.61000, 6.0
8.62000, 6.0
8.63000, 1.0
8.64000, 4.0
8.65000, 3.0
8.66000, 3.0
8.67000, 5.0
8.68000, 5.0
8.69000, 2.0
8.70000, 4.0
8.71000, 4.0
8.72000, 3.0
8.73000, 5.0
8.74000, 0.0
8.75000, 4.0
8.76000, 0.0
8.77000, 3.0
8.78000, 2.0
8.79000, 2.0
8.80000, 3.0
8.81000, 1.0
8.82000, 4.0
8.83000, 3.0
8.84000, 3.0
8.85000, 3.0
8.86000, 5.0
8.87000, 4.0
8.88000, 2.0
8.89000, 8.0
8.90000, 4.0
8.91000, 3.0
8.92000, 2.0
8.93000, 2.0
8.94000, 5.0
8.95000, 7.0
8.96000, 4.0
8.97000, 4.0
8.98000, 6.0
8.99000, 4.0
9.00000, 4.0
9.01000, 3.0
9.02000, 4.0
9.03000, 2.0
9.04000, 4.0
9.05000, 3.0
9.06000, 2.0
9.07000, 5.0
9.08000, 4.0
9.09000, 4.0
9.10000, 4.0
9.11000, 4.0
9.12000, 5.0
9.13000, 1.0
9.14000, 2.0
9.15000, 1.0
9.16000, 3.0
9.17000, 3.0
9.18000, 3.0
9.19000, 4.0
9.20000, 1.0
9.21000, 1.0
9.22000, 3.0
9.23000, 2.0
9.24000, 1.0
9.25000, 0.0
9.26000, 1.0
9.27000, 2.0
9.28000, 3.0
9.29000, 3.0
9.30000, 3.0
9.31000, 1.0
9.32000, 1.0
9.33000, 2.0
9.34000, 3.0
9.35000, 0.0
9.36000, 1.0
9.37000, 1.0
9.38000, 1.0
9.39000, 2.0
9.40000, 2.0
9.41000, 1.0
9.42000, 2.0
9.43000, 4.0
9.44000, 2.0
9.45000, 0.0
9.46000, 3.0
9.47000, 0.0
9.48000, 1.0
9.49000, 2.0
9.50000, 0.0
9.51000, 2.0
9.52000, 2.0
9.53000, 4.0
9.54000, 1.0
9.55000, 1.0
9.56000, 1.0
9.57000, 0.0
9.58000, 2.0
9.59000, 0.0
9.60000, 2.0
9.61000, 1.0
9.62000, 0.0
9.63000, 2.0
9.64000, 0.0
9.65000, 0.0
9.66000, 1.0
9.67000, 2.0
9.68000, 0.0
9.69000, 1.0
9.70000, 1.0
9.71000, 1.0
9.72000, 1.0
9.73000, 0.0
9.74000, 1.0
9.75000, 1.0
9.76000, 0.0
9.77000, 1.0
9.78000, 0.0
9.79000, 0.0
9.80000, 0.0
9.81000, 0.0
9.82000, 1.0
9.83000, 0.0
9.84000, 1.0
9.85000, 1.0
9.86000, 1.0
9.87000, 0.0
9.88000, 1.0
9.89000, 1.0
9.90000, 0.0
9.91000, 0.0
9.92000, 0.0
9.93000, 0.0
9.94000, 0.0
9.95000, 1.0
9.96000, 0.0
9.97000, 0.0
9.98000, 1.0
9.99000, 1.0
10.00000, 0.0
10.01000, 0.0
10.02000, 1.0
10.03000, 0.0
10.04000, 0.0
10.05000, 0.0
10.06000, 0.0
10.07000, 0.0
10.08000, 0.0
10.09000, 0.0
10.10000, 0.0
10.11000, 0.0
10.12000, 0.0
10.13000, 0.0
10.13500, 0.0
#ENDOFDATA   :