File: Spectras 20250424/20250425_10K_J1_3.txt
#FORMAT      : EMSA/MAS Spectral Data File
#VERSION     : 1.0
#TITLE       : 20250425_10K_J1_3
#DATE        : 24-APR-2025
#TIME        : 10:38
#OWNER       :
#NPOINTS     : 2048.0
#NCOLUMNS    : 1.0
#XUNITS      : keV
#YUNITS      : counts
#DATATYPE    : XY
#XPERCHAN    : 0.005
#OFFSET      : -0.1
#SIGNALTYPE  : EDS
#CHOFFSET    : 20.0
#LIVETIME    : 60.0
#REALTIME    : 61.5691
#BEAMKV      : 10.0
#MAGCAM      : 800.0
#XTILTSTGE   : 0.0
#AZIMANGLE   : 0.0
#ELEVANGLE   : 29.0
#XPOSITION mm: 2.1725
#YPOSITION mm: 1.8240
#ZPOSITION mm: 13.5200
##OXINSTPT   : 2
##OXINSTSTROB: 67.53
#SPECTRUM    : Spectral Data Starts Here
-0.10000, 0.0
-0.09000, 0.0
-0.08000, 1.0
-0.07000, 2.0
-0.06000, 5.0
-0.05000, 12.0
-0.04000, 32.0
-0.03000, 60.0
-0.02000, 138.0
-0.01000, 236.0
0.00000, 383.0
0.01000, 598.0
0.02000, 778.0
0.03000, 921.0
0.04000, 1047.0
0.05000, 1077.0
0.06000, 1036.0
0.07000, 903.0
0.08000, 695.0
0.09000, 504.0
0.10000, 434.0
0.11000, 365.0
0.12000, 437.0
0.13000, 484.0
0.14000, 579.0
0.15000, 591.0
0.16000, 638.0
0.17000, 577.0
0.18000, 524.0
0.19000, 445.0
0.20000, 361.0
0.21000, 287.0
0.22000, 263.0
0.23000, 230.0
0.24000, 214.0
0.25000, 166.0
0.26000, 190.0
0.27000, 169.0
0.28000, 150.0
0.29000, 154.0
0.30000, 121.0
0.31000, 103.0
0.32000, 93.0
0.33000, 83.0
0.34000, 62.0
0.35000, 67.0
0.36000, 71.0
0.37000, 65.0
0.38000, 74.0
0.39000, 71.0
0.40000, 70.0
0.41000, 91.0
0.42000, 88.0
0.43000, 96.0
0.44000, 126.0
0.45000, 184.0
0.46000, 223.0
0.47000, 323.0
0.48000, 365.0
0.49000, 537.0
0.50000, 643.0
0.51000, 730.0
0.52000, 774.0
0.53000, 765.0
0.54000, 712.0
0.55000, 610.0
0.56000, 486.0
0.57000, 439.0
0.58000, 316.0
0.59000, 257.0
0.60000, 213.0
0.61000, 177.0
0.62000, 150.0
0.63000, 163.0
0.64000, 133.0
0.65000, 148.0
0.66000, 149.0
0.67000, 157.0
0.68000, 163.0
0.69000, 170.0
0.70000, 189.0
0.71000, 186.0
0.72000, 189.0
0.73000, 168.0
0.74000, 196.0
0.75000, 189.0
0.76000, 197.0
0.77000, 192.0
0.78000, 203.0
0.79000, 185.0
0.80000, 209.0
0.81000, 189.0
0.82000, 212.0
0.83000, 210.0
0.84000, 211.0
0.85000, 196.0
0.86000, 204.0
0.87000, 202.0
0.88000, 221.0
0.89000, 219.0
0.90000, 221.0
0.91000, 208.0
0.92000, 217.0
0.93000, 212.0
0.94000, 234.0
0.95000, 219.0
0.96000, 201.0
0.97000, 229.0
0.98000, 226.0
0.99000, 204.0
1.00000, 234.0
1.01000, 239.0
1.02000, 198.0
1.03000, 221.0
1.04000, 222.0
1.05000, 255.0
1.06000, 242.0
1.07000, 260.0
1.08000, 217.0
1.09000, 240.0
1.10000, 233.0
1.11000, 234.0
1.12000, 231.0
1.13000, 218.0
1.14000, 251.0
1.15000, 211.0
1.16000, 210.0
1.17000, 223.0
1.18000, 258.0
1.19000, 241.0
1.20000, 238.0
1.21000, 238.0
1.22000, 232.0
1.23000, 222.0
1.24000, 232.0
1.25000, 208.0
1.26000, 222.0
1.27000, 219.0
1.28000, 231.0
1.29000, 239.0
1.30000, 228.0
1.31000, 220.0
1.32000, 216.0
1.33000, 240.0
1.34000, 239.0
1.35000, 223.0
1.36000, 208.0
1.37000, 224.0
1.38000, 203.0
1.39000, 215.0
1.40000, 230.0
1.41000, 228.0
1.42000, 230.0
1.43000, 226.0
1.44000, 228.0
1.45000, 223.0
1.46000, 224.0
1.47000, 223.0
1.48000, 246.0
1.49000, 214.0
1.50000, 242.0
1.51000, 245.0
1.52000, 255.0
1.53000, 257.0
1.54000, 222.0
1.55000, 220.0
1.56000, 199.0
1.57000, 230.0
1.58000, 208.0
1.59000, 229.0
1.60000, 216.0
1.61000, 225.0
1.62000, 302.0
1.63000, 303.0
1.64000, 469.0
1.65000, 664.0
1.66000, 959.0
1.67000, 1432.0
1.68000, 2005.0
1.69000, 2933.0
1.70000, 3789.0
1.71000, 4759.0
1.72000, 5704.0
1.73000, 6244.0
1.74000, 6619.0
1.75000, 6534.0
1.76000, 6039.0
1.77000, 5296.0
1.78000, 4524.0
1.79000, 3471.0
1.80000, 2631.0
1.81000, 1864.0
1.82000, 1390.0
1.83000, 1017.0
1.84000, 732.0
1.85000, 560.0
1.86000, 469.0
1.87000, 371.0
1.88000, 319.0
1.89000, 252.0
1.90000, 234.0
1.91000, 179.0
1.92000, 193.0
1.93000, 173.0
1.94000, 191.0
1.95000, 175.0
1.96000, 178.0
1.97000, 188.0
1.98000, 200.0
1.99000, 210.0
2.00000, 225.0
2.01000, 224.0
2.02000, 208.0
2.03000, 232.0
2.04000, 183.0
2.05000, 198.0
2.06000, 214.0
2.07000, 201.0
2.08000, 190.0
2.09000, 172.0
2.10000, 181.0
2.11000, 178.0
2.12000, 161.0
2.13000, 167.0
2.14000, 167.0
2.15000, 173.0
2.16000, 184.0
2.17000, 190.0
2.18000, 226.0
2.19000, 301.0
2.20000, 412.0
2.21000, 555.0
2.22000, 833.0
2.23000, 1117.0
2.24000, 1567.0
2.25000, 2151.0
2.26000, 2695.0
2.27000, 3301.0
2.28000, 3815.0
2.29000, 4341.0
2.30000, 4485.0
2.31000, 4589.0
2.32000, 4529.0
2.33000, 4057.0
2.34000, 3747.0
2.35000, 3143.0
2.36000, 2614.0
2.37000, 2166.0
2.38000, 1878.0
2.39000, 1528.0
2.40000, 1356.0
2.41000, 1161.0
2.42000, 1038.0
2.43000, 944.0
2.44000, 873.0
2.45000, 770.0
2.46000, 709.0
2.47000, 595.0
2.48000, 568.0
2.49000, 499.0
2.50000, 410.0
2.51000, 419.0
2.52000, 329.0
2.53000, 284.0
2.54000, 253.0
2.55000, 237.0
2.56000, 194.0
2.57000, 204.0
2.58000, 166.0
2.59000, 157.0
2.60000, 131.0
2.61000, 134.0
2.62000, 119.0
2.63000, 109.0
2.64000, 101.0
2.65000, 109.0
2.66000, 122.0
2.67000, 103.0
2.68000, 107.0
2.69000, 86.0
2.70000, 91.0
2.71000, 93.0
2.72000, 92.0
2.73000, 84.0
2.74000, 85.0
2.75000, 92.0
2.76000, 89.0
2.77000, 82.0
2.78000, 90.0
2.79000, 96.0
2.80000, 93.0
2.81000, 92.0
2.82000, 100.0
2.83000, 96.0
2.84000, 105.0
2.85000, 108.0
2.86000, 89.0
2.87000, 85.0
2.88000, 87.0
2.89000, 87.0
2.90000, 90.0
2.91000, 87.0
2.92000, 81.0
2.93000, 84.0
2.94000, 67.0
2.95000, 77.0
2.96000, 79.0
2.97000, 90.0
2.98000, 71.0
2.99000, 84.0
3.00000, 98.0
3.01000, 77.0
3.02000, 63.0
3.03000, 73.0
3.04000, 76.0
3.05000, 82.0
3.06000, 73.0
3.07000, 76.0
3.08000, 79.0
3.09000, 77.0
3.10000, 75.0
3.11000, 75.0
3.12000, 79.0
3.13000, 77.0
3.14000, 69.0
3.15000, 68.0
3.16000, 76.0
3.17000, 86.0
3.18000, 91.0
3.19000, 90.0
3.20000, 79.0
3.21000, 67.0
3.22000, 80.0
3.23000, 73.0
3.24000, 64.0
3.25000, 80.0
3.26000, 71.0
3.27000, 77.0
3.28000, 77.0
3.29000, 74.0
3.30000, 75.0
3.31000, 72.0
3.32000, 58.0
3.33000, 62.0
3.34000, 85.0
3.35000, 82.0
3.36000, 60.0
3.37000, 67.0
3.38000, 70.0
3.39000, 73.0
3.40000, 81.0
3.41000, 62.0
3.42000, 82.0
3.43000, 75.0
3.44000, 78.0
3.45000, 75.0
3.46000, 79.0
3.47000, 64.0
3.48000, 77.0
3.49000, 59.0
3.50000, 70.0
3.51000, 78.0
3.52000, 83.0
3.53000, 72.0
3.54000, 54.0
3.55000, 75.0
3.56000, 69.0
3.57000, 68.0
3.58000, 77.0
3.59000, 60.0
3.60000, 68.0
3.61000, 63.0
3.62000, 63.0
3.63000, 64.0
3.64000, 75.0
3.65000, 62.0
3.66000, 64.0
3.67000, 68.0
3.68000, 62.0
3.69000, 50.0
3.70000, 65.0
3.71000, 68.0
3.72000, 75.0
3.73000, 58.0
3.74000, 71.0
3.75000, 53.0
3.76000, 58.0
3.77000, 65.0
3.78000, 61.0
3.79000, 52.0
3.80000, 68.0
3.81000, 63.0
3.82000, 69.0
3.83000, 64.0
3.84000, 74.0
3.85000, 66.0
3.86000, 61.0
3.87000, 69.0
3.88000, 55.0
3.89000, 57.0
3.90000, 49.0
3.91000, 54.0
3.92000, 53.0
3.93000, 59.0
3.94000, 67.0
3.95000, 56.0
3.96000, 52.0
3.97000, 56.0
3.98000, 65.0
3.99000, 69.0
4.00000, 68.0
4.01000, 82.0
4.02000, 68.0
4.03000, 70.0
4.04000, 63.0
4.05000, 56.0
4.06000, 69.0
4.07000, 51.0
4.08000, 64.0
4.09000, 62.0
4.10000, 61.0
4.11000, 60.0
4.12000, 64.0
4.13000, 52.0
4.14000, 62.0
4.15000, 59.0
4.16000, 76.0
4.17000, 56.0
4.18000, 75.0
4.19000, 68.0
4.20000, 50.0
4.21000, 64.0
4.22000, 55.0
4.23000, 58.0
4.24000, 52.0
4.25000, 56.0
4.26000, 45.0
4.27000, 57.0
4.28000, 66.0
4.29000, 47.0
4.30000, 40.0
4.31000, 49.0
4.32000, 44.0
4.33000, 54.0
4.34000, 55.0
4.35000, 54.0
4.36000, 60.0
4.37000, 53.0
4.38000, 49.0
4.39000, 54.0
4.40000, 53.0
4.41000, 57.0
4.42000, 60.0
4.43000, 45.0
4.44000, 58.0
4.45000, 56.0
4.46000, 55.0
4.47000, 47.0
4.48000, 47.0
4.49000, 40.0
4.50000, 48.0
4.51000, 43.0
4.52000, 43.0
4.53000, 53.0
4.54000, 55.0
4.55000, 48.0
4.56000, 48.0
4.57000, 46.0
4.58000, 61.0
4.59000, 40.0
4.60000, 41.0
4.61000, 57.0
4.62000, 49.0
4.63000, 51.0
4.64000, 55.0
4.65000, 54.0
4.66000, 55.0
4.67000, 58.0
4.68000, 45.0
4.69000, 43.0
4.70000, 40.0
4.71000, 42.0
4.72000, 65.0
4.73000, 49.0
4.74000, 50.0
4.75000, 42.0
4.76000, 50.0
4.77000, 50.0
4.78000, 44.0
4.79000, 39.0
4.80000, 36.0
4.81000, 49.0
4.82000, 44.0
4.83000, 38.0
4.84000, 50.0
4.85000, 52.0
4.86000, 41.0
4.87000, 44.0
4.88000, 46.0
4.89000, 32.0
4.90000, 49.0
4.91000, 41.0
4.92000, 35.0
4.93000, 46.0
4.94000, 35.0
4.95000, 44.0
4.96000, 43.0
4.97000, 36.0
4.98000, 36.0
4.99000, 39.0
5.00000, 39.0
5.01000, 34.0
5.02000, 44.0
5.03000, 40.0
5.04000, 48.0
5.05000, 55.0
5.06000, 33.0
5.07000, 42.0
5.08000, 46.0
5.09000, 42.0
5.10000, 34.0
5.11000, 38.0
5.12000, 42.0
5.13000, 30.0
5.14000, 36.0
5.15000, 46.0
5.16000, 34.0
5.17000, 41.0
5.18000, 35.0
5.19000, 41.0
5.20000, 43.0
5.21000, 37.0
5.22000, 37.0
5.23000, 38.0
5.24000, 33.0
5.25000, 30.0
5.26000, 30.0
5.27000, 44.0
5.28000, 36.0
5.29000, 36.0
5.30000, 36.0
5.31000, 40.0
5.32000, 32.0
5.33000, 31.0
5.34000, 38.0
5.35000, 36.0
5.36000, 43.0
5.37000, 41.0
5.38000, 39.0
5.39000, 33.0
5.40000, 31.0
5.41000, 31.0
5.42000, 36.0
5.43000, 31.0
5.44000, 39.0
5.45000, 36.0
5.46000, 32.0
5.47000, 34.0
5.48000, 37.0
5.49000, 40.0
5.50000, 21.0
5.51000, 47.0
5.52000, 25.0
5.53000, 30.0
5.54000, 28.0
5.55000, 38.0
5.56000, 32.0
5.57000, 40.0
5.58000, 31.0
5.59000, 29.0
5.60000, 30.0
5.61000, 46.0
5.62000, 39.0
5.63000, 35.0
5.64000, 36.0
5.65000, 26.0
5.66000, 32.0
5.67000, 36.0
5.68000, 23.0
5.69000, 29.0
5.70000, 31.0
5.71000, 38.0
5.72000, 39.0
5.73000, 38.0
5.74000, 40.0
5.75000, 36.0
5.76000, 30.0
5.77000, 27.0
5.78000, 29.0
5.79000, 27.0
5.80000, 29.0
5.81000, 30.0
5.82000, 28.0
5.83000, 26.0
5.84000, 32.0
5.85000, 31.0
5.86000, 35.0
5.87000, 34.0
5.88000, 33.0
5.89000, 26.0
5.90000, 39.0
5.91000, 34.0
5.92000, 43.0
5.93000, 29.0
5.94000, 30.0
5.95000, 29.0
5.96000, 30.0
5.97000, 26.0
5.98000, 21.0
5.99000, 30.0
6.00000, 30.0
6.01000, 24.0
6.02000, 32.0
6.03000, 24.0
6.04000, 32.0
6.05000, 27.0
6.06000, 31.0
6.07000, 24.0
6.08000, 29.0
6.09000, 31.0
6.10000, 34.0
6.11000, 27.0
6.12000, 28.0
6.13000, 28.0
6.14000, 22.0
6.15000, 32.0
6.16000, 32.0
6.17000, 28.0
6.18000, 28.0
6.19000, 23.0
6.20000, 27.0
6.21000, 21.0
6.22000, 17.0
6.23000, 22.0
6.24000, 26.0
6.25000, 18.0
6.26000, 30.0
6.27000, 21.0
6.28000, 32.0
6.29000, 24.0
6.30000, 29.0
6.31000, 22.0
6.32000, 21.0
6.33000, 22.0
6.34000, 27.0
6.35000, 27.0
6.36000, 25.0
6.37000, 22.0
6.38000, 25.0
6.39000, 31.0
6.40000, 35.0
6.41000, 25.0
6.42000, 21.0
6.43000, 18.0
6.44000, 19.0
6.45000, 24.0
6.46000, 34.0
6.47000, 26.0
6.48000, 20.0
6.49000, 21.0
6.50000, 20.0
6.51000, 23.0
6.52000, 23.0
6.53000, 16.0
6.54000, 23.0
6.55000, 25.0
6.56000, 22.0
6.57000, 21.0
6.58000, 17.0
6.59000, 30.0
6.60000, 19.0
6.61000, 18.0
6.62000, 26.0
6.63000, 30.0
6.64000, 27.0
6.65000, 33.0
6.66000, 33.0
6.67000, 15.0
6.68000, 19.0
6.69000, 23.0
6.70000, 24.0
6.71000, 29.0
6.72000, 27.0
6.73000, 25.0
6.74000, 26.0
6.75000, 25.0
6.76000, 18.0
6.77000, 26.0
6.78000, 26.0
6.79000, 21.0
6.80000, 18.0
6.81000, 22.0
6.82000, 22.0
6.83000, 16.0
6.84000, 30.0
6.85000, 25.0
6.86000, 19.0
6.87000, 20.0
6.88000, 33.0
6.89000, 23.0
6.90000, 25.0
6.91000, 19.0
6.92000, 18.0
6.93000, 20.0
6.94000, 16.0
6.95000, 20.0
6.96000, 22.0
6.97000, 10.0
6.98000, 22.0
6.99000, 24.0
7.00000, 22.0
7.01000, 22.0
7.02000, 28.0
7.03000, 20.0
7.04000, 21.0
7.05000, 21.0
7.06000, 25.0
7.07000, 16.0
7.08000, 18.0
7.09000, 12.0
7.10000, 16.0
7.11000, 21.0
7.12000, 26.0
7.13000, 24.0
7.14000, 24.0
7.15000, 18.0
7.16000, 16.0
7.17000, 11.0
7.18000, 17.0
7.19000, 12.0
7.20000, 16.0
7.21000, 25.0
7.22000, 18.0
7.23000, 23.0
7.24000, 20.0
7.25000, 24.0
7.26000, 19.0
7.27000, 18.0
7.28000, 16.0
7.29000, 18.0
7.30000, 19.0
7.31000, 12.0
7.32000, 25.0
7.33000, 23.0
7.34000, 15.0
7.35000, 9.0
7.36000, 23.0
7.37000, 15.0
7.38000, 14.0
7.39000, 19.0
7.40000, 15.0
7.41000, 18.0
7.42000, 18.0
7.43000, 16.0
7.44000, 14.0
7.45000, 15.0
7.46000, 17.0
7.47000, 12.0
7.48000, 15.0
7.49000, 15.0
7.50000, 15.0
7.51000, 15.0
7.52000, 11.0
7.53000, 13.0
7.54000, 13.0
7.55000, 25.0
7.56000, 21.0
7.57000, 13.0
7.58000, 13.0
7.59000, 27.0
7.60000, 9.0
7.61000, 17.0
7.62000, 20.0
7.63000, 22.0
7.64000, 17.0
7.65000, 23.0
7.66000, 11.0
7.67000, 18.0
7.68000, 15.0
7.69000, 24.0
7.70000, 17.0
7.71000, 7.0
7.72000, 15.0
7.73000, 15.0
7.74000, 21.0
7.75000, 19.0
7.76000, 20.0
7.77000, 21.0
7.78000, 15.0
7.79000, 18.0
7.80000, 14.0
7.81000, 14.0
7.82000, 20.0
7.83000, 16.0
7.84000, 12.0
7.85000, 11.0
7.86000, 20.0
7.87000, 12.0
7.88000, 18.0
7.89000, 14.0
7.90000, 17.0
7.91000, 11.0
7.92000, 18.0
7.93000, 19.0
7.94000, 24.0
7.95000, 13.0
7.96000, 9.0
7.97000, 9.0
7.98000, 13.0
7.99000, 15.0
8.00000, 12.0
8.01000, 15.0
8.02000, 15.0
8.03000, 22.0
8.04000, 17.0
8.05000, 14.0
8.06000, 7.0
8.07000, 15.0
8.08000, 10.0
8.09000, 18.0
8.10000, 21.0
8.11000, 12.0
8.12000, 7.0
8.13000, 8.0
8.14000, 13.0
8.15000, 10.0
8.16000, 15.0
8.17000, 11.0
8.18000, 18.0
8.19000, 14.0
8.20000, 11.0
8.21000, 14.0
8.22000, 13.0
8.23000, 9.0
8.24000, 12.0
8.25000, 8.0
8.26000, 13.0
8.27000, 10.0
8.28000, 13.0
8.29000, 7.0
8.30000, 12.0
8.31000, 9.0
8.32000, 7.0
8.33000, 11.0
8.34000, 13.0
8.35000, 16.0
8.36000, 12.0
8.37000, 19.0
8.38000, 14.0
8.39000, 8.0
8.40000, 12.0
8.41000, 12.0
8.42000, 15.0
8.43000, 14.0
8.44000, 13.0
8.45000, 13.0
8.46000, 7.0
8.47000, 7.0
8.48000, 12.0
8.49000, 6.0
8.50000, 10.0
8.51000, 6.0
8.52000, 11.0
8.53000, 10.0
8.54000, 14.0
8.55000, 10.0
8.56000, 5.0
8.57000, 11.0
8.58000, 7.0
8.59000, 14.0
8.60000, 11.0
8.61000, 12.0
8.62000, 9.0
8.63000, 10.0
8.64000, 16.0
8.65000, 11.0
8.66000, 10.0
8.67000, 10.0
8.68000, 7.0
8.69000, 10.0
8.70000, 7.0
8.71000, 14.0
8.72000, 11.0
8.73000, 6.0
8.74000, 8.0
8.75000, 9.0
8.76000, 8.0
8.77000, 13.0
8.78000, 9.0
8.79000, 9.0
8.80000, 15.0
8.81000, 5.0
8.82000, 9.0
8.83000, 10.0
8.84000, 15.0
8.85000, 10.0
8.86000, 10.0
8.87000, 6.0
8.88000, 9.0
8.89000, 17.0
8.90000, 13.0
8.91000, 7.0
8.92000, 13.0
8.93000, 8.0
8.94000, 11.0
8.95000, 4.0
8.96000, 7.0
8.97000, 10.0
8.98000, 4.0
8.99000, 7.0
9.00000, 2.0
9.01000, 7.0
9.02000, 5.0
9.03000, 11.0
9.04000, 14.0
9.05000, 8.0
9.06000, 5.0
9.07000, 12.0
9.08000, 8.0
9.09000, 4.0
9.10000, 3.0
9.11000, 10.0
9.12000, 4.0
9.13000, 10.0
9.14000, 8.0
9.15000, 4.0
9.16000, 7.0
9.17000, 5.0
9.18000, 4.0
9.19000, 14.0
9.20000, 4.0
9.21000, 4.0
9.22000, 7.0
9.23000, 3.0
9.24000, 4.0
9.25000, 9.0
9.26000, 6.0
9.27000, 10.0
9.28000, 4.0
9.29000, 4.0
9.30000, 4.0
9.31000, 8.0
9.32000, 2.0
9.33000, 8.0
9.34000, 3.0
9.35000, 6.0
9.36000, 5.0
9.37000, 5.0
9.38000, 7.0
9.39000, 9.0
9.40000, 3.0
9.41000, 4.0
9.42000, 7.0
9.43000, 6.0
9.44000, 7.0
9.45000, 4.0
9.46000, 4.0
9.47000, 3.0
9.48000, 5.0
9.49000, 3.0
9.50000, 4.0
9.51000, 3.0
9.52000, 6.0
9.53000, 7.0
9.54000, 3.0
9.55000, 4.0
9.56000, 4.0
9.57000, 3.0
9.58000, 7.0
9.59000, 2.0
9.60000, 4.0
9.61000, 2.0
9.62000, 4.0
9.63000, 9.0
9.64000, 5.0
9.65000, 5.0
9.66000, 0.0
9.67000, 2.0
9.68000, 4.0
9.69000, 2.0
9.70000, 3.0
9.71000, 5.0
9.72000, 2.0
9.73000, 1.0
9.74000, 2.0
9.75000, 2.0
9.76000, 7.0
9.77000, 5.0
9.78000, 2.0
9.79000, 1.0
9.80000, 1.0
9.81000, 2.0
9.82000, 3.0
9.83000, 3.0
9.84000, 2.0
9.85000, 3.0
9.86000, 0.0
9.87000, 3.0
9.88000, 1.0
9.89000, 1.0
9.90000, 2.0
9.91000, 1.0
9.92000, 2.0
9.93000, 0.0
9.94000, 1.0
9.95000, 0.0
9.96000, 1.0
9.97000, 1.0
9.98000, 0.0
9.99000, 0.0
10.00000, 1.0
10.01000, 0.0
10.02000, 0.0
10.03000, 0.0
10.04000, 0.0
10.05000, 1.0
10.06000, 1.0
10.07000, 0.0
10.08000, 0.0
10.09000, 0.0
10.10000, 0.0
10.11000, 0.0
10.12000, 0.0
10.13000, 0.0
10.13500, 0.0
#ENDOFDATA   :