File: Spectras 20250424/20250425_10K_N10_area2_2.txt
#FORMAT      : EMSA/MAS Spectral Data File
#VERSION     : 1.0
#TITLE       : 20250425_10K_N10_area2_2
#DATE        : 24-APR-2025
#TIME        : 10:08
#OWNER       :
#NPOINTS     : 2048.0
#NCOLUMNS    : 1.0
#XUNITS      : keV
#YUNITS      : counts
#DATATYPE    : XY
#XPERCHAN    : 0.005
#OFFSET      : -0.1
#SIGNALTYPE  : EDS
#CHOFFSET    : 20.0
#LIVETIME    : 60.0222
#REALTIME    : 61.7726
#BEAMKV      : 10.0
#MAGCAM      : 1700.0
#XTILTSTGE   : 0.0
#AZIMANGLE   : 0.0
#ELEVANGLE   : 29.0
#XPOSITION mm: -0.7575
#YPOSITION mm: 0.5895
#ZPOSITION mm: 13.5530
##OXINSTPT   : 2
##OXINSTSTROB: 67.51
#SPECTRUM    : Spectral Data Starts Here
-0.10000, 0.0
-0.09000, 0.0
-0.08000, 0.0
-0.07000, 1.0
-0.06000, 4.0
-0.05000, 16.0
-0.04000, 36.0
-0.03000, 65.0
-0.02000, 123.0
-0.01000, 262.0
0.00000, 394.0
0.01000, 576.0
0.02000, 784.0
0.03000, 913.0
0.04000, 1081.0
0.05000, 1074.0
0.06000, 1028.0
0.07000, 867.0
0.08000, 692.0
0.09000, 471.0
0.10000, 330.0
0.11000, 221.0
0.12000, 181.0
0.13000, 172.0
0.14000, 169.0
0.15000, 182.0
0.16000, 202.0
0.17000, 201.0
0.18000, 213.0
0.19000, 191.0
0.20000, 180.0
0.21000, 153.0
0.22000, 158.0
0.23000, 162.0
0.24000, 139.0
0.25000, 145.0
0.26000, 155.0
0.27000, 164.0
0.28000, 154.0
0.29000, 134.0
0.30000, 130.0
0.31000, 87.0
0.32000, 79.0
0.33000, 85.0
0.34000, 73.0
0.35000, 70.0
0.36000, 71.0
0.37000, 93.0
0.38000, 85.0
0.39000, 108.0
0.40000, 110.0
0.41000, 146.0
0.42000, 202.0
0.43000, 262.0
0.44000, 378.0
0.45000, 584.0
0.46000, 954.0
0.47000, 1513.0
0.48000, 2132.0
0.49000, 2824.0
0.50000, 3604.0
0.51000, 4110.0
0.52000, 4429.0
0.53000, 4360.0
0.54000, 3847.0
0.55000, 3237.0
0.56000, 2417.0
0.57000, 1606.0
0.58000, 1016.0
0.59000, 645.0
0.60000, 390.0
0.61000, 236.0
0.62000, 156.0
0.63000, 114.0
0.64000, 108.0
0.65000, 98.0
0.66000, 108.0
0.67000, 123.0
0.68000, 108.0
0.69000, 128.0
0.70000, 104.0
0.71000, 135.0
0.72000, 142.0
0.73000, 145.0
0.74000, 142.0
0.75000, 143.0
0.76000, 135.0
0.77000, 149.0
0.78000, 169.0
0.79000, 151.0
0.80000, 143.0
0.81000, 175.0
0.82000, 167.0
0.83000, 157.0
0.84000, 186.0
0.85000, 171.0
0.86000, 163.0
0.87000, 191.0
0.88000, 198.0
0.89000, 190.0
0.90000, 185.0
0.91000, 183.0
0.92000, 183.0
0.93000, 194.0
0.94000, 188.0
0.95000, 176.0
0.96000, 199.0
0.97000, 200.0
0.98000, 173.0
0.99000, 188.0
1.00000, 203.0
1.01000, 215.0
1.02000, 192.0
1.03000, 208.0
1.04000, 191.0
1.05000, 201.0
1.06000, 206.0
1.07000, 190.0
1.08000, 205.0
1.09000, 184.0
1.10000, 193.0
1.11000, 175.0
1.12000, 195.0
1.13000, 195.0
1.14000, 203.0
1.15000, 213.0
1.16000, 192.0
1.17000, 179.0
1.18000, 188.0
1.19000, 201.0
1.20000, 200.0
1.21000, 177.0
1.22000, 191.0
1.23000, 212.0
1.24000, 204.0
1.25000, 210.0
1.26000, 186.0
1.27000, 195.0
1.28000, 212.0
1.29000, 194.0
1.30000, 192.0
1.31000, 199.0
1.32000, 207.0
1.33000, 210.0
1.34000, 200.0
1.35000, 204.0
1.36000, 214.0
1.37000, 205.0
1.38000, 169.0
1.39000, 206.0
1.40000, 218.0
1.41000, 207.0
1.42000, 191.0
1.43000, 202.0
1.44000, 215.0
1.45000, 221.0
1.46000, 216.0
1.47000, 191.0
1.48000, 197.0
1.49000, 211.0
1.50000, 240.0
1.51000, 208.0
1.52000, 214.0
1.53000, 216.0
1.54000, 224.0
1.55000, 224.0
1.56000, 234.0
1.57000, 222.0
1.58000, 230.0
1.59000, 254.0
1.60000, 233.0
1.61000, 282.0
1.62000, 321.0
1.63000, 467.0
1.64000, 688.0
1.65000, 1047.0
1.66000, 1722.0
1.67000, 2647.0
1.68000, 3852.0
1.69000, 5485.0
1.70000, 7301.0
1.71000, 9302.0
1.72000, 10947.0
1.73000, 12177.0
1.74000, 12890.0
1.75000, 12548.0
1.76000, 11549.0
1.77000, 10331.0
1.78000, 8382.0
1.79000, 6530.0
1.80000, 5029.0
1.81000, 3513.0
1.82000, 2504.0
1.83000, 1855.0
1.84000, 1315.0
1.85000, 986.0
1.86000, 722.0
1.87000, 552.0
1.88000, 429.0
1.89000, 343.0
1.90000, 256.0
1.91000, 200.0
1.92000, 177.0
1.93000, 134.0
1.94000, 125.0
1.95000, 116.0
1.96000, 105.0
1.97000, 94.0
1.98000, 109.0
1.99000, 108.0
2.00000, 118.0
2.01000, 114.0
2.02000, 112.0
2.03000, 123.0
2.04000, 99.0
2.05000, 103.0
2.06000, 106.0
2.07000, 97.0
2.08000, 110.0
2.09000, 104.0
2.10000, 95.0
2.11000, 96.0
2.12000, 108.0
2.13000, 87.0
2.14000, 85.0
2.15000, 103.0
2.16000, 108.0
2.17000, 122.0
2.18000, 94.0
2.19000, 122.0
2.20000, 133.0
2.21000, 161.0
2.22000, 233.0
2.23000, 267.0
2.24000, 368.0
2.25000, 505.0
2.26000, 598.0
2.27000, 652.0
2.28000, 806.0
2.29000, 883.0
2.30000, 927.0
2.31000, 992.0
2.32000, 906.0
2.33000, 838.0
2.34000, 751.0
2.35000, 652.0
2.36000, 572.0
2.37000, 495.0
2.38000, 405.0
2.39000, 338.0
2.40000, 318.0
2.41000, 264.0
2.42000, 240.0
2.43000, 245.0
2.44000, 226.0
2.45000, 205.0
2.46000, 198.0
2.47000, 175.0
2.48000, 176.0
2.49000, 178.0
2.50000, 141.0
2.51000, 137.0
2.52000, 130.0
2.53000, 110.0
2.54000, 115.0
2.55000, 109.0
2.56000, 96.0
2.57000, 88.0
2.58000, 98.0
2.59000, 88.0
2.60000, 97.0
2.61000, 89.0
2.62000, 75.0
2.63000, 73.0
2.64000, 74.0
2.65000, 83.0
2.66000, 85.0
2.67000, 89.0
2.68000, 86.0
2.69000, 70.0
2.70000, 72.0
2.71000, 81.0
2.72000, 76.0
2.73000, 76.0
2.74000, 78.0
2.75000, 71.0
2.76000, 71.0
2.77000, 58.0
2.78000, 75.0
2.79000, 76.0
2.80000, 80.0
2.81000, 88.0
2.82000, 85.0
2.83000, 91.0
2.84000, 78.0
2.85000, 56.0
2.86000, 81.0
2.87000, 76.0
2.88000, 85.0
2.89000, 71.0
2.90000, 66.0
2.91000, 76.0
2.92000, 74.0
2.93000, 67.0
2.94000, 79.0
2.95000, 63.0
2.96000, 79.0
2.97000, 78.0
2.98000, 67.0
2.99000, 64.0
3.00000, 68.0
3.01000, 64.0
3.02000, 71.0
3.03000, 65.0
3.04000, 70.0
3.05000, 58.0
3.06000, 64.0
3.07000, 58.0
3.08000, 60.0
3.09000, 72.0
3.10000, 59.0
3.11000, 67.0
3.12000, 57.0
3.13000, 68.0
3.14000, 67.0
3.15000, 53.0
3.16000, 50.0
3.17000, 67.0
3.18000, 64.0
3.19000, 62.0
3.20000, 70.0
3.21000, 72.0
3.22000, 70.0
3.23000, 72.0
3.24000, 60.0
3.25000, 62.0
3.26000, 56.0
3.27000, 55.0
3.28000, 60.0
3.29000, 60.0
3.30000, 65.0
3.31000, 72.0
3.32000, 60.0
3.33000, 53.0
3.34000, 52.0
3.35000, 56.0
3.36000, 58.0
3.37000, 56.0
3.38000, 58.0
3.39000, 68.0
3.40000, 65.0
3.41000, 51.0
3.42000, 64.0
3.43000, 72.0
3.44000, 67.0
3.45000, 73.0
3.46000, 79.0
3.47000, 61.0
3.48000, 81.0
3.49000, 71.0
3.50000, 71.0
3.51000, 75.0
3.52000, 62.0
3.53000, 74.0
3.54000, 67.0
3.55000, 57.0
3.56000, 66.0
3.57000, 54.0
3.58000, 60.0
3.59000, 51.0
3.60000, 56.0
3.61000, 55.0
3.62000, 51.0
3.63000, 52.0
3.64000, 54.0
3.65000, 46.0
3.66000, 43.0
3.67000, 51.0
3.68000, 48.0
3.69000, 50.0
3.70000, 51.0
3.71000, 51.0
3.72000, 39.0
3.73000, 52.0
3.74000, 49.0
3.75000, 49.0
3.76000, 49.0
3.77000, 54.0
3.78000, 49.0
3.79000, 53.0
3.80000, 57.0
3.81000, 51.0
3.82000, 39.0
3.83000, 47.0
3.84000, 37.0
3.85000, 57.0
3.86000, 35.0
3.87000, 40.0
3.88000, 48.0
3.89000, 41.0
3.90000, 44.0
3.91000, 46.0
3.92000, 60.0
3.93000, 50.0
3.94000, 47.0
3.95000, 41.0
3.96000, 43.0
3.97000, 55.0
3.98000, 61.0
3.99000, 59.0
4.00000, 46.0
4.01000, 54.0
4.02000, 44.0
4.03000, 43.0
4.04000, 39.0
4.05000, 57.0
4.06000, 45.0
4.07000, 35.0
4.08000, 44.0
4.09000, 45.0
4.10000, 40.0
4.11000, 44.0
4.12000, 53.0
4.13000, 34.0
4.14000, 44.0
4.15000, 41.0
4.16000, 38.0
4.17000, 29.0
4.18000, 36.0
4.19000, 38.0
4.20000, 48.0
4.21000, 36.0
4.22000, 42.0
4.23000, 34.0
4.24000, 46.0
4.25000, 47.0
4.26000, 34.0
4.27000, 34.0
4.28000, 47.0
4.29000, 50.0
4.30000, 40.0
4.31000, 45.0
4.32000, 36.0
4.33000, 33.0
4.34000, 32.0
4.35000, 35.0
4.36000, 39.0
4.37000, 41.0
4.38000, 36.0
4.39000, 38.0
4.40000, 45.0
4.41000, 36.0
4.42000, 37.0
4.43000, 46.0
4.44000, 34.0
4.45000, 41.0
4.46000, 38.0
4.47000, 30.0
4.48000, 52.0
4.49000, 40.0
4.50000, 43.0
4.51000, 46.0
4.52000, 39.0
4.53000, 27.0
4.54000, 37.0
4.55000, 40.0
4.56000, 41.0
4.57000, 39.0
4.58000, 44.0
4.59000, 42.0
4.60000, 33.0
4.61000, 42.0
4.62000, 28.0
4.63000, 26.0
4.64000, 30.0
4.65000, 35.0
4.66000, 39.0
4.67000, 33.0
4.68000, 37.0
4.69000, 36.0
4.70000, 35.0
4.71000, 30.0
4.72000, 32.0
4.73000, 24.0
4.74000, 32.0
4.75000, 38.0
4.76000, 35.0
4.77000, 35.0
4.78000, 35.0
4.79000, 35.0
4.80000, 26.0
4.81000, 26.0
4.82000, 29.0
4.83000, 39.0
4.84000, 31.0
4.85000, 34.0
4.86000, 30.0
4.87000, 40.0
4.88000, 28.0
4.89000, 33.0
4.90000, 29.0
4.91000, 30.0
4.92000, 40.0
4.93000, 29.0
4.94000, 23.0
4.95000, 27.0
4.96000, 31.0
4.97000, 29.0
4.98000, 25.0
4.99000, 28.0
5.00000, 28.0
5.01000, 41.0
5.02000, 26.0
5.03000, 34.0
5.04000, 33.0
5.05000, 33.0
5.06000, 38.0
5.07000, 35.0
5.08000, 33.0
5.09000, 27.0
5.10000, 24.0
5.11000, 26.0
5.12000, 30.0
5.13000, 29.0
5.14000, 24.0
5.15000, 30.0
5.16000, 26.0
5.17000, 24.0
5.18000, 24.0
5.19000, 27.0
5.20000, 23.0
5.21000, 31.0
5.22000, 46.0
5.23000, 28.0
5.24000, 22.0
5.25000, 13.0
5.26000, 21.0
5.27000, 20.0
5.28000, 21.0
5.29000, 25.0
5.30000, 28.0
5.31000, 21.0
5.32000, 26.0
5.33000, 25.0
5.34000, 28.0
5.35000, 23.0
5.36000, 20.0
5.37000, 23.0
5.38000, 26.0
5.39000, 24.0
5.40000, 26.0
5.41000, 20.0
5.42000, 22.0
5.43000, 24.0
5.44000, 21.0
5.45000, 25.0
5.46000, 31.0
5.47000, 18.0
5.48000, 20.0
5.49000, 26.0
5.50000, 17.0
5.51000, 25.0
5.52000, 29.0
5.53000, 19.0
5.54000, 21.0
5.55000, 20.0
5.56000, 23.0
5.57000, 22.0
5.58000, 25.0
5.59000, 29.0
5.60000, 20.0
5.61000, 25.0
5.62000, 22.0
5.63000, 25.0
5.64000, 26.0
5.65000, 24.0
5.66000, 33.0
5.67000, 28.0
5.68000, 31.0
5.69000, 21.0
5.70000, 35.0
5.71000, 18.0
5.72000, 21.0
5.73000, 29.0
5.74000, 23.0
5.75000, 20.0
5.76000, 26.0
5.77000, 24.0
5.78000, 14.0
5.79000, 26.0
5.80000, 24.0
5.81000, 27.0
5.82000, 22.0
5.83000, 24.0
5.84000, 19.0
5.85000, 27.0
5.86000, 19.0
5.87000, 20.0
5.88000, 14.0
5.89000, 23.0
5.90000, 19.0
5.91000, 19.0
5.92000, 23.0
5.93000, 24.0
5.94000, 22.0
5.95000, 27.0
5.96000, 25.0
5.97000, 22.0
5.98000, 18.0
5.99000, 24.0
6.00000, 26.0
6.01000, 18.0
6.02000, 16.0
6.03000, 16.0
6.04000, 13.0
6.05000, 18.0
6.06000, 19.0
6.07000, 22.0
6.08000, 17.0
6.09000, 27.0
6.10000, 21.0
6.11000, 27.0
6.12000, 15.0
6.13000, 15.0
6.14000, 17.0
6.15000, 15.0
6.16000, 12.0
6.17000, 24.0
6.18000, 13.0
6.19000, 15.0
6.20000, 18.0
6.21000, 12.0
6.22000, 20.0
6.23000, 20.0
6.24000, 16.0
6.25000, 22.0
6.26000, 16.0
6.27000, 22.0
6.28000, 14.0
6.29000, 20.0
6.30000, 17.0
6.31000, 17.0
6.32000, 25.0
6.33000, 16.0
6.34000, 16.0
6.35000, 21.0
6.36000, 18.0
6.37000, 16.0
6.38000, 19.0
6.39000, 17.0
6.40000, 16.0
6.41000, 13.0
6.42000, 14.0
6.43000, 17.0
6.44000, 18.0
6.45000, 21.0
6.46000, 24.0
6.47000, 15.0
6.48000, 20.0
6.49000, 12.0
6.50000, 20.0
6.51000, 18.0
6.52000, 11.0
6.53000, 19.0
6.54000, 17.0
6.55000, 12.0
6.56000, 21.0
6.57000, 18.0
6.58000, 11.0
6.59000, 7.0
6.60000, 15.0
6.61000, 12.0
6.62000, 14.0
6.63000, 7.0
6.64000, 17.0
6.65000, 19.0
6.66000, 14.0
6.67000, 19.0
6.68000, 14.0
6.69000, 8.0
6.70000, 16.0
6.71000, 17.0
6.72000, 9.0
6.73000, 19.0
6.74000, 10.0
6.75000, 11.0
6.76000, 19.0
6.77000, 13.0
6.78000, 17.0
6.79000, 17.0
6.80000, 13.0
6.81000, 15.0
6.82000, 14.0
6.83000, 11.0
6.84000, 13.0
6.85000, 15.0
6.86000, 13.0
6.87000, 19.0
6.88000, 12.0
6.89000, 7.0
6.90000, 11.0
6.91000, 14.0
6.92000, 15.0
6.93000, 12.0
6.94000, 9.0
6.95000, 19.0
6.96000, 13.0
6.97000, 16.0
6.98000, 13.0
6.99000, 15.0
7.00000, 18.0
7.01000, 10.0
7.02000, 11.0
7.03000, 9.0
7.04000, 16.0
7.05000, 11.0
7.06000, 18.0
7.07000, 3.0
7.08000, 18.0
7.09000, 16.0
7.10000, 17.0
7.11000, 9.0
7.12000, 16.0
7.13000, 8.0
7.14000, 12.0
7.15000, 9.0
7.16000, 16.0
7.17000, 10.0
7.18000, 11.0
7.19000, 8.0
7.20000, 12.0
7.21000, 11.0
7.22000, 12.0
7.23000, 11.0
7.24000, 13.0
7.25000, 12.0
7.26000, 13.0
7.27000, 12.0
7.28000, 8.0
7.29000, 12.0
7.30000, 13.0
7.31000, 16.0
7.32000, 14.0
7.33000, 14.0
7.34000, 8.0
7.35000, 14.0
7.36000, 13.0
7.37000, 12.0
7.38000, 8.0
7.39000, 10.0
7.40000, 10.0
7.41000, 9.0
7.42000, 15.0
7.43000, 13.0
7.44000, 16.0
7.45000, 5.0
7.46000, 7.0
7.47000, 11.0
7.48000, 27.0
7.49000, 11.0
7.50000, 10.0
7.51000, 10.0
7.52000, 12.0
7.53000, 8.0
7.54000, 14.0
7.55000, 15.0
7.56000, 12.0
7.57000, 13.0
7.58000, 4.0
7.59000, 16.0
7.60000, 12.0
7.61000, 12.0
7.62000, 15.0
7.63000, 8.0
7.64000, 10.0
7.65000, 17.0
7.66000, 10.0
7.67000, 6.0
7.68000, 9.0
7.69000, 10.0
7.70000, 3.0
7.71000, 12.0
7.72000, 4.0
7.73000, 7.0
7.74000, 3.0
7.75000, 6.0
7.76000, 12.0
7.77000, 8.0
7.78000, 7.0
7.79000, 11.0
7.80000, 2.0
7.81000, 16.0
7.82000, 9.0
7.83000, 5.0
7.84000, 10.0
7.85000, 7.0
7.86000, 13.0
7.87000, 4.0
7.88000, 8.0
7.89000, 4.0
7.90000, 12.0
7.91000, 8.0
7.92000, 6.0
7.93000, 9.0
7.94000, 13.0
7.95000, 4.0
7.96000, 9.0
7.97000, 8.0
7.98000, 4.0
7.99000, 6.0
8.00000, 7.0
8.01000, 7.0
8.02000, 7.0
8.03000, 6.0
8.04000, 12.0
8.05000, 8.0
8.06000, 6.0
8.07000, 10.0
8.08000, 4.0
8.09000, 9.0
8.10000, 7.0
8.11000, 7.0
8.12000, 4.0
8.13000, 4.0
8.14000, 5.0
8.15000, 7.0
8.16000, 4.0
8.17000, 5.0
8.18000, 6.0
8.19000, 16.0
8.20000, 4.0
8.21000, 6.0
8.22000, 11.0
8.23000, 4.0
8.24000, 6.0
8.25000, 5.0
8.26000, 6.0
8.27000, 9.0
8.28000, 4.0
8.29000, 5.0
8.30000, 12.0
8.31000, 4.0
8.32000, 5.0
8.33000, 3.0
8.34000, 4.0
8.35000, 6.0
8.36000, 5.0
8.37000, 8.0
8.38000, 5.0
8.39000, 9.0
8.40000, 8.0
8.41000, 7.0
8.42000, 6.0
8.43000, 8.0
8.44000, 5.0
8.45000, 7.0
8.46000, 6.0
8.47000, 8.0
8.48000, 10.0
8.49000, 9.0
8.50000, 7.0
8.51000, 3.0
8.52000, 11.0
8.53000, 6.0
8.54000, 6.0
8.55000, 6.0
8.56000, 4.0
8.57000, 6.0
8.58000, 6.0
8.59000, 10.0
8.60000, 4.0
8.61000, 5.0
8.62000, 4.0
8.63000, 6.0
8.64000, 4.0
8.65000, 3.0
8.66000, 4.0
8.67000, 4.0
8.68000, 8.0
8.69000, 5.0
8.70000, 6.0
8.71000, 2.0
8.72000, 3.0
8.73000, 5.0
8.74000, 7.0
8.75000, 2.0
8.76000, 3.0
8.77000, 4.0
8.78000, 3.0
8.79000, 6.0
8.80000, 3.0
8.81000, 3.0
8.82000, 5.0
8.83000, 6.0
8.84000, 5.0
8.85000, 6.0
8.86000, 6.0
8.87000, 5.0
8.88000, 2.0
8.89000, 3.0
8.90000, 6.0
8.91000, 7.0
8.92000, 3.0
8.93000, 2.0
8.94000, 8.0
8.95000, 4.0
8.96000, 5.0
8.97000, 6.0
8.98000, 3.0
8.99000, 10.0
9.00000, 3.0
9.01000, 5.0
9.02000, 3.0
9.03000, 0.0
9.04000, 3.0
9.05000, 2.0
9.06000, 1.0
9.07000, 4.0
9.08000, 2.0
9.09000, 5.0
9.10000, 3.0
9.11000, 1.0
9.12000, 3.0
9.13000, 1.0
9.14000, 5.0
9.15000, 2.0
9.16000, 2.0
9.17000, 5.0
9.18000, 1.0
9.19000, 3.0
9.20000, 4.0
9.21000, 3.0
9.22000, 4.0
9.23000, 2.0
9.24000, 4.0
9.25000, 4.0
9.26000, 2.0
9.27000, 3.0
9.28000, 2.0
9.29000, 2.0
9.30000, 2.0
9.31000, 2.0
9.32000, 3.0
9.33000, 3.0
9.34000, 3.0
9.35000, 5.0
9.36000, 2.0
9.37000, 1.0
9.38000, 5.0
9.39000, 0.0
9.40000, 4.0
9.41000, 2.0
9.42000, 3.0
9.43000, 2.0
9.44000, 1.0
9.45000, 0.0
9.46000, 6.0
9.47000, 5.0
9.48000, 2.0
9.49000, 2.0
9.50000, 2.0
9.51000, 0.0
9.52000, 4.0
9.53000, 1.0
9.54000, 2.0
9.55000, 3.0
9.56000, 3.0
9.57000, 6.0
9.58000, 2.0
9.59000, 1.0
9.60000, 1.0
9.61000, 5.0
9.62000, 2.0
9.63000, 1.0
9.64000, 2.0
9.65000, 3.0
9.66000, 4.0
9.67000, 3.0
9.68000, 0.0
9.69000, 1.0
9.70000, 2.0
9.71000, 0.0
9.72000, 3.0
9.73000, 4.0
9.74000, 3.0
9.75000, 2.0
9.76000, 1.0
9.77000, 4.0
9.78000, 0.0
9.79000, 0.0
9.80000, 0.0
9.81000, 3.0
9.82000, 1.0
9.83000, 1.0
9.84000, 2.0
9.85000, 1.0
9.86000, 1.0
9.87000, 2.0
9.88000, 0.0
9.89000, 3.0
9.90000, 1.0
9.91000, 0.0
9.92000, 1.0
9.93000, 2.0
9.94000, 0.0
9.95000, 0.0
9.96000, 2.0
9.97000, 0.0
9.98000, 2.0
9.99000, 0.0
10.00000, 2.0
10.01000, 0.0
10.02000, 0.0
10.03000, 0.0
10.04000, 0.0
10.05000, 0.0
10.06000, 0.0
10.07000, 0.0
10.08000, 1.0
10.09000, 0.0
10.10000, 2.0
10.11000, 0.0
10.12000, 0.0
10.13000, 0.0
10.13500, 0.0
#ENDOFDATA   :