File: Spectras 20250424/20250425_10K_C6_3.txt
#FORMAT      : EMSA/MAS Spectral Data File
#VERSION     : 1.0
#TITLE       : 20250425_10K_C6_3
#DATE        : 24-APR-2025
#TIME        : 10:25
#OWNER       :
#NPOINTS     : 2048.0
#NCOLUMNS    : 1.0
#XUNITS      : keV
#YUNITS      : counts
#DATATYPE    : XY
#XPERCHAN    : 0.005
#OFFSET      : -0.1
#SIGNALTYPE  : EDS
#CHOFFSET    : 20.0
#LIVETIME    : 60.0013
#REALTIME    : 61.8638
#BEAMKV      : 10.0
#MAGCAM      : 700.0
#XTILTSTGE   : 0.0
#AZIMANGLE   : 0.0
#ELEVANGLE   : 29.0
#XPOSITION mm: 1.8685
#YPOSITION mm: -0.6548
#ZPOSITION mm: 13.5200
##OXINSTPT   : 2
##OXINSTSTROB: 67.50
#SPECTRUM    : Spectral Data Starts Here
-0.10000, 0.0
-0.09000, 0.0
-0.08000, 0.0
-0.07000, 0.0
-0.06000, 4.0
-0.05000, 12.0
-0.04000, 29.0
-0.03000, 70.0
-0.02000, 145.0
-0.01000, 253.0
0.00000, 375.0
0.01000, 559.0
0.02000, 750.0
0.03000, 949.0
0.04000, 1060.0
0.05000, 1080.0
0.06000, 1056.0
0.07000, 832.0
0.08000, 669.0
0.09000, 438.0
0.10000, 305.0
0.11000, 199.0
0.12000, 126.0
0.13000, 99.0
0.14000, 97.0
0.15000, 109.0
0.16000, 94.0
0.17000, 95.0
0.18000, 96.0
0.19000, 100.0
0.20000, 113.0
0.21000, 106.0
0.22000, 97.0
0.23000, 108.0
0.24000, 119.0
0.25000, 115.0
0.26000, 142.0
0.27000, 161.0
0.28000, 155.0
0.29000, 124.0
0.30000, 125.0
0.31000, 99.0
0.32000, 86.0
0.33000, 85.0
0.34000, 80.0
0.35000, 88.0
0.36000, 97.0
0.37000, 102.0
0.38000, 112.0
0.39000, 139.0
0.40000, 154.0
0.41000, 182.0
0.42000, 224.0
0.43000, 316.0
0.44000, 475.0
0.45000, 787.0
0.46000, 1267.0
0.47000, 1947.0
0.48000, 2824.0
0.49000, 3810.0
0.50000, 4883.0
0.51000, 5499.0
0.52000, 5856.0
0.53000, 5742.0
0.54000, 5166.0
0.55000, 4244.0
0.56000, 3088.0
0.57000, 2184.0
0.58000, 1414.0
0.59000, 832.0
0.60000, 439.0
0.61000, 244.0
0.62000, 181.0
0.63000, 123.0
0.64000, 99.0
0.65000, 102.0
0.66000, 121.0
0.67000, 107.0
0.68000, 102.0
0.69000, 132.0
0.70000, 100.0
0.71000, 124.0
0.72000, 128.0
0.73000, 142.0
0.74000, 136.0
0.75000, 136.0
0.76000, 152.0
0.77000, 157.0
0.78000, 150.0
0.79000, 160.0
0.80000, 146.0
0.81000, 175.0
0.82000, 148.0
0.83000, 169.0
0.84000, 167.0
0.85000, 167.0
0.86000, 162.0
0.87000, 170.0
0.88000, 158.0
0.89000, 163.0
0.90000, 180.0
0.91000, 189.0
0.92000, 180.0
0.93000, 193.0
0.94000, 188.0
0.95000, 183.0
0.96000, 172.0
0.97000, 188.0
0.98000, 187.0
0.99000, 214.0
1.00000, 199.0
1.01000, 205.0
1.02000, 181.0
1.03000, 184.0
1.04000, 188.0
1.05000, 198.0
1.06000, 200.0
1.07000, 214.0
1.08000, 214.0
1.09000, 194.0
1.10000, 174.0
1.11000, 193.0
1.12000, 219.0
1.13000, 196.0
1.14000, 185.0
1.15000, 197.0
1.16000, 182.0
1.17000, 197.0
1.18000, 185.0
1.19000, 196.0
1.20000, 189.0
1.21000, 193.0
1.22000, 190.0
1.23000, 195.0
1.24000, 192.0
1.25000, 196.0
1.26000, 188.0
1.27000, 194.0
1.28000, 191.0
1.29000, 206.0
1.30000, 186.0
1.31000, 190.0
1.32000, 210.0
1.33000, 187.0
1.34000, 194.0
1.35000, 200.0
1.36000, 205.0
1.37000, 192.0
1.38000, 185.0
1.39000, 195.0
1.40000, 216.0
1.41000, 182.0
1.42000, 216.0
1.43000, 238.0
1.44000, 219.0
1.45000, 208.0
1.46000, 234.0
1.47000, 212.0
1.48000, 205.0
1.49000, 243.0
1.50000, 224.0
1.51000, 190.0
1.52000, 211.0
1.53000, 248.0
1.54000, 218.0
1.55000, 219.0
1.56000, 227.0
1.57000, 216.0
1.58000, 224.0
1.59000, 240.0
1.60000, 224.0
1.61000, 285.0
1.62000, 358.0
1.63000, 481.0
1.64000, 704.0
1.65000, 1156.0
1.66000, 1838.0
1.67000, 2832.0
1.68000, 4367.0
1.69000, 6062.0
1.70000, 8043.0
1.71000, 10045.0
1.72000, 12037.0
1.73000, 13439.0
1.74000, 14172.0
1.75000, 13997.0
1.76000, 12989.0
1.77000, 11220.0
1.78000, 9410.0
1.79000, 7330.0
1.80000, 5394.0
1.81000, 3950.0
1.82000, 2715.0
1.83000, 1990.0
1.84000, 1399.0
1.85000, 1023.0
1.86000, 755.0
1.87000, 598.0
1.88000, 501.0
1.89000, 361.0
1.90000, 285.0
1.91000, 204.0
1.92000, 167.0
1.93000, 141.0
1.94000, 118.0
1.95000, 101.0
1.96000, 97.0
1.97000, 99.0
1.98000, 87.0
1.99000, 96.0
2.00000, 84.0
2.01000, 107.0
2.02000, 89.0
2.03000, 102.0
2.04000, 87.0
2.05000, 84.0
2.06000, 98.0
2.07000, 105.0
2.08000, 97.0
2.09000, 84.0
2.10000, 85.0
2.11000, 85.0
2.12000, 76.0
2.13000, 94.0
2.14000, 87.0
2.15000, 105.0
2.16000, 93.0
2.17000, 96.0
2.18000, 92.0
2.19000, 112.0
2.20000, 111.0
2.21000, 128.0
2.22000, 145.0
2.23000, 174.0
2.24000, 203.0
2.25000, 229.0
2.26000, 280.0
2.27000, 331.0
2.28000, 349.0
2.29000, 385.0
2.30000, 423.0
2.31000, 379.0
2.32000, 378.0
2.33000, 366.0
2.34000, 329.0
2.35000, 292.0
2.36000, 255.0
2.37000, 222.0
2.38000, 201.0
2.39000, 201.0
2.40000, 170.0
2.41000, 143.0
2.42000, 150.0
2.43000, 142.0
2.44000, 136.0
2.45000, 130.0
2.46000, 104.0
2.47000, 113.0
2.48000, 106.0
2.49000, 100.0
2.50000, 92.0
2.51000, 101.0
2.52000, 104.0
2.53000, 110.0
2.54000, 90.0
2.55000, 81.0
2.56000, 85.0
2.57000, 74.0
2.58000, 88.0
2.59000, 99.0
2.60000, 80.0
2.61000, 82.0
2.62000, 73.0
2.63000, 96.0
2.64000, 76.0
2.65000, 75.0
2.66000, 86.0
2.67000, 72.0
2.68000, 68.0
2.69000, 73.0
2.70000, 77.0
2.71000, 62.0
2.72000, 75.0
2.73000, 85.0
2.74000, 66.0
2.75000, 75.0
2.76000, 72.0
2.77000, 65.0
2.78000, 68.0
2.79000, 85.0
2.80000, 71.0
2.81000, 69.0
2.82000, 85.0
2.83000, 74.0
2.84000, 73.0
2.85000, 66.0
2.86000, 77.0
2.87000, 76.0
2.88000, 68.0
2.89000, 66.0
2.90000, 66.0
2.91000, 56.0
2.92000, 76.0
2.93000, 71.0
2.94000, 62.0
2.95000, 66.0
2.96000, 76.0
2.97000, 61.0
2.98000, 76.0
2.99000, 66.0
3.00000, 57.0
3.01000, 64.0
3.02000, 72.0
3.03000, 71.0
3.04000, 60.0
3.05000, 66.0
3.06000, 69.0
3.07000, 73.0
3.08000, 63.0
3.09000, 73.0
3.10000, 56.0
3.11000, 66.0
3.12000, 51.0
3.13000, 74.0
3.14000, 63.0
3.15000, 69.0
3.16000, 66.0
3.17000, 66.0
3.18000, 64.0
3.19000, 62.0
3.20000, 65.0
3.21000, 55.0
3.22000, 67.0
3.23000, 69.0
3.24000, 68.0
3.25000, 59.0
3.26000, 53.0
3.27000, 66.0
3.28000, 62.0
3.29000, 64.0
3.30000, 64.0
3.31000, 63.0
3.32000, 59.0
3.33000, 49.0
3.34000, 62.0
3.35000, 52.0
3.36000, 49.0
3.37000, 65.0
3.38000, 52.0
3.39000, 66.0
3.40000, 65.0
3.41000, 60.0
3.42000, 84.0
3.43000, 63.0
3.44000, 70.0
3.45000, 82.0
3.46000, 82.0
3.47000, 85.0
3.48000, 97.0
3.49000, 76.0
3.50000, 71.0
3.51000, 62.0
3.52000, 84.0
3.53000, 75.0
3.54000, 59.0
3.55000, 70.0
3.56000, 53.0
3.57000, 75.0
3.58000, 56.0
3.59000, 57.0
3.60000, 62.0
3.61000, 54.0
3.62000, 62.0
3.63000, 59.0
3.64000, 53.0
3.65000, 59.0
3.66000, 55.0
3.67000, 43.0
3.68000, 41.0
3.69000, 43.0
3.70000, 47.0
3.71000, 52.0
3.72000, 58.0
3.73000, 45.0
3.74000, 56.0
3.75000, 55.0
3.76000, 55.0
3.77000, 37.0
3.78000, 45.0
3.79000, 47.0
3.80000, 47.0
3.81000, 57.0
3.82000, 46.0
3.83000, 56.0
3.84000, 45.0
3.85000, 53.0
3.86000, 57.0
3.87000, 43.0
3.88000, 42.0
3.89000, 46.0
3.90000, 41.0
3.91000, 41.0
3.92000, 32.0
3.93000, 41.0
3.94000, 37.0
3.95000, 43.0
3.96000, 43.0
3.97000, 46.0
3.98000, 48.0
3.99000, 56.0
4.00000, 45.0
4.01000, 60.0
4.02000, 42.0
4.03000, 53.0
4.04000, 37.0
4.05000, 47.0
4.06000, 44.0
4.07000, 42.0
4.08000, 41.0
4.09000, 43.0
4.10000, 43.0
4.11000, 39.0
4.12000, 48.0
4.13000, 38.0
4.14000, 31.0
4.15000, 55.0
4.16000, 51.0
4.17000, 28.0
4.18000, 43.0
4.19000, 39.0
4.20000, 35.0
4.21000, 45.0
4.22000, 44.0
4.23000, 38.0
4.24000, 35.0
4.25000, 36.0
4.26000, 46.0
4.27000, 38.0
4.28000, 42.0
4.29000, 43.0
4.30000, 48.0
4.31000, 42.0
4.32000, 36.0
4.33000, 26.0
4.34000, 40.0
4.35000, 37.0
4.36000, 48.0
4.37000, 46.0
4.38000, 32.0
4.39000, 42.0
4.40000, 33.0
4.41000, 37.0
4.42000, 27.0
4.43000, 41.0
4.44000, 37.0
4.45000, 31.0
4.46000, 36.0
4.47000, 35.0
4.48000, 37.0
4.49000, 32.0
4.50000, 40.0
4.51000, 32.0
4.52000, 34.0
4.53000, 44.0
4.54000, 40.0
4.55000, 35.0
4.56000, 32.0
4.57000, 35.0
4.58000, 31.0
4.59000, 37.0
4.60000, 26.0
4.61000, 30.0
4.62000, 36.0
4.63000, 29.0
4.64000, 31.0
4.65000, 29.0
4.66000, 31.0
4.67000, 31.0
4.68000, 38.0
4.69000, 29.0
4.70000, 34.0
4.71000, 24.0
4.72000, 31.0
4.73000, 30.0
4.74000, 41.0
4.75000, 29.0
4.76000, 34.0
4.77000, 35.0
4.78000, 33.0
4.79000, 43.0
4.80000, 31.0
4.81000, 38.0
4.82000, 37.0
4.83000, 39.0
4.84000, 34.0
4.85000, 30.0
4.86000, 29.0
4.87000, 27.0
4.88000, 29.0
4.89000, 21.0
4.90000, 30.0
4.91000, 33.0
4.92000, 23.0
4.93000, 31.0
4.94000, 36.0
4.95000, 36.0
4.96000, 32.0
4.97000, 40.0
4.98000, 33.0
4.99000, 27.0
5.00000, 30.0
5.01000, 24.0
5.02000, 36.0
5.03000, 36.0
5.04000, 23.0
5.05000, 25.0
5.06000, 25.0
5.07000, 22.0
5.08000, 27.0
5.09000, 24.0
5.10000, 29.0
5.11000, 23.0
5.12000, 27.0
5.13000, 35.0
5.14000, 33.0
5.15000, 28.0
5.16000, 31.0
5.17000, 30.0
5.18000, 32.0
5.19000, 23.0
5.20000, 23.0
5.21000, 25.0
5.22000, 23.0
5.23000, 26.0
5.24000, 27.0
5.25000, 34.0
5.26000, 28.0
5.27000, 25.0
5.28000, 22.0
5.29000, 28.0
5.30000, 30.0
5.31000, 24.0
5.32000, 27.0
5.33000, 24.0
5.34000, 26.0
5.35000, 18.0
5.36000, 20.0
5.37000, 20.0
5.38000, 24.0
5.39000, 31.0
5.40000, 22.0
5.41000, 24.0
5.42000, 16.0
5.43000, 20.0
5.44000, 19.0
5.45000, 26.0
5.46000, 23.0
5.47000, 26.0
5.48000, 25.0
5.49000, 22.0
5.50000, 26.0
5.51000, 17.0
5.52000, 23.0
5.53000, 20.0
5.54000, 25.0
5.55000, 15.0
5.56000, 18.0
5.57000, 24.0
5.58000, 19.0
5.59000, 20.0
5.60000, 15.0
5.61000, 25.0
5.62000, 24.0
5.63000, 15.0
5.64000, 21.0
5.65000, 13.0
5.66000, 21.0
5.67000, 20.0
5.68000, 21.0
5.69000, 25.0
5.70000, 27.0
5.71000, 18.0
5.72000, 24.0
5.73000, 21.0
5.74000, 17.0
5.75000, 24.0
5.76000, 21.0
5.77000, 22.0
5.78000, 23.0
5.79000, 31.0
5.80000, 23.0
5.81000, 16.0
5.82000, 17.0
5.83000, 27.0
5.84000, 19.0
5.85000, 16.0
5.86000, 17.0
5.87000, 16.0
5.88000, 20.0
5.89000, 22.0
5.90000, 18.0
5.91000, 23.0
5.92000, 17.0
5.93000, 20.0
5.94000, 21.0
5.95000, 16.0
5.96000, 17.0
5.97000, 13.0
5.98000, 24.0
5.99000, 14.0
6.00000, 16.0
6.01000, 25.0
6.02000, 28.0
6.03000, 23.0
6.04000, 17.0
6.05000, 21.0
6.06000, 23.0
6.07000, 18.0
6.08000, 18.0
6.09000, 22.0
6.10000, 19.0
6.11000, 22.0
6.12000, 25.0
6.13000, 10.0
6.14000, 24.0
6.15000, 13.0
6.16000, 12.0
6.17000, 16.0
6.18000, 21.0
6.19000, 13.0
6.20000, 21.0
6.21000, 18.0
6.22000, 13.0
6.23000, 22.0
6.24000, 16.0
6.25000, 20.0
6.26000, 13.0
6.27000, 14.0
6.28000, 19.0
6.29000, 12.0
6.30000, 16.0
6.31000, 13.0
6.32000, 11.0
6.33000, 15.0
6.34000, 21.0
6.35000, 22.0
6.36000, 21.0
6.37000, 19.0
6.38000, 23.0
6.39000, 12.0
6.40000, 17.0
6.41000, 26.0
6.42000, 13.0
6.43000, 19.0
6.44000, 17.0
6.45000, 12.0
6.46000, 15.0
6.47000, 10.0
6.48000, 12.0
6.49000, 15.0
6.50000, 10.0
6.51000, 15.0
6.52000, 11.0
6.53000, 20.0
6.54000, 10.0
6.55000, 10.0
6.56000, 17.0
6.57000, 14.0
6.58000, 19.0
6.59000, 19.0
6.60000, 17.0
6.61000, 15.0
6.62000, 14.0
6.63000, 18.0
6.64000, 10.0
6.65000, 8.0
6.66000, 11.0
6.67000, 12.0
6.68000, 9.0
6.69000, 14.0
6.70000, 18.0
6.71000, 18.0
6.72000, 16.0
6.73000, 12.0
6.74000, 8.0
6.75000, 10.0
6.76000, 15.0
6.77000, 19.0
6.78000, 15.0
6.79000, 9.0
6.80000, 14.0
6.81000, 16.0
6.82000, 14.0
6.83000, 11.0
6.84000, 10.0
6.85000, 19.0
6.86000, 14.0
6.87000, 13.0
6.88000, 14.0
6.89000, 12.0
6.90000, 11.0
6.91000, 9.0
6.92000, 12.0
6.93000, 16.0
6.94000, 14.0
6.95000, 8.0
6.96000, 13.0
6.97000, 10.0
6.98000, 12.0
6.99000, 12.0
7.00000, 14.0
7.01000, 18.0
7.02000, 16.0
7.03000, 12.0
7.04000, 13.0
7.05000, 8.0
7.06000, 14.0
7.07000, 8.0
7.08000, 7.0
7.09000, 12.0
7.10000, 5.0
7.11000, 15.0
7.12000, 13.0
7.13000, 4.0
7.14000, 5.0
7.15000, 5.0
7.16000, 11.0
7.17000, 13.0
7.18000, 7.0
7.19000, 14.0
7.20000, 15.0
7.21000, 16.0
7.22000, 12.0
7.23000, 12.0
7.24000, 8.0
7.25000, 7.0
7.26000, 14.0
7.27000, 11.0
7.28000, 6.0
7.29000, 8.0
7.30000, 9.0
7.31000, 3.0
7.32000, 8.0
7.33000, 10.0
7.34000, 10.0
7.35000, 4.0
7.36000, 10.0
7.37000, 5.0
7.38000, 10.0
7.39000, 9.0
7.40000, 9.0
7.41000, 11.0
7.42000, 5.0
7.43000, 5.0
7.44000, 8.0
7.45000, 9.0
7.46000, 10.0
7.47000, 14.0
7.48000, 10.0
7.49000, 12.0
7.50000, 4.0
7.51000, 8.0
7.52000, 10.0
7.53000, 5.0
7.54000, 9.0
7.55000, 4.0
7.56000, 10.0
7.57000, 9.0
7.58000, 10.0
7.59000, 3.0
7.60000, 8.0
7.61000, 3.0
7.62000, 9.0
7.63000, 9.0
7.64000, 6.0
7.65000, 7.0
7.66000, 7.0
7.67000, 11.0
7.68000, 5.0
7.69000, 3.0
7.70000, 9.0
7.71000, 10.0
7.72000, 11.0
7.73000, 7.0
7.74000, 7.0
7.75000, 4.0
7.76000, 15.0
7.77000, 9.0
7.78000, 11.0
7.79000, 7.0
7.80000, 10.0
7.81000, 9.0
7.82000, 6.0
7.83000, 9.0
7.84000, 6.0
7.85000, 6.0
7.86000, 5.0
7.87000, 11.0
7.88000, 7.0
7.89000, 7.0
7.90000, 8.0
7.91000, 10.0
7.92000, 4.0
7.93000, 8.0
7.94000, 9.0
7.95000, 7.0
7.96000, 6.0
7.97000, 9.0
7.98000, 10.0
7.99000, 7.0
8.00000, 10.0
8.01000, 7.0
8.02000, 6.0
8.03000, 4.0
8.04000, 7.0
8.05000, 6.0
8.06000, 2.0
8.07000, 11.0
8.08000, 7.0
8.09000, 6.0
8.10000, 8.0
8.11000, 3.0
8.12000, 4.0
8.13000, 3.0
8.14000, 6.0
8.15000, 9.0
8.16000, 9.0
8.17000, 1.0
8.18000, 7.0
8.19000, 5.0
8.20000, 4.0
8.21000, 9.0
8.22000, 8.0
8.23000, 6.0
8.24000, 4.0
8.25000, 8.0
8.26000, 7.0
8.27000, 6.0
8.28000, 6.0
8.29000, 6.0
8.30000, 9.0
8.31000, 1.0
8.32000, 4.0
8.33000, 12.0
8.34000, 5.0
8.35000, 7.0
8.36000, 10.0
8.37000, 6.0
8.38000, 8.0
8.39000, 5.0
8.40000, 4.0
8.41000, 7.0
8.42000, 8.0
8.43000, 4.0
8.44000, 5.0
8.45000, 3.0
8.46000, 3.0
8.47000, 3.0
8.48000, 2.0
8.49000, 4.0
8.50000, 3.0
8.51000, 3.0
8.52000, 1.0
8.53000, 1.0
8.54000, 9.0
8.55000, 8.0
8.56000, 2.0
8.57000, 2.0
8.58000, 3.0
8.59000, 2.0
8.60000, 9.0
8.61000, 4.0
8.62000, 7.0
8.63000, 5.0
8.64000, 6.0
8.65000, 6.0
8.66000, 3.0
8.67000, 7.0
8.68000, 0.0
8.69000, 5.0
8.70000, 4.0
8.71000, 4.0
8.72000, 3.0
8.73000, 3.0
8.74000, 4.0
8.75000, 4.0
8.76000, 4.0
8.77000, 4.0
8.78000, 3.0
8.79000, 7.0
8.80000, 4.0
8.81000, 7.0
8.82000, 3.0
8.83000, 3.0
8.84000, 5.0
8.85000, 3.0
8.86000, 5.0
8.87000, 3.0
8.88000, 2.0
8.89000, 4.0
8.90000, 4.0
8.91000, 4.0
8.92000, 3.0
8.93000, 8.0
8.94000, 2.0
8.95000, 0.0
8.96000, 7.0
8.97000, 4.0
8.98000, 4.0
8.99000, 2.0
9.00000, 4.0
9.01000, 4.0
9.02000, 4.0
9.03000, 4.0
9.04000, 2.0
9.05000, 2.0
9.06000, 2.0
9.07000, 2.0
9.08000, 1.0
9.09000, 1.0
9.10000, 3.0
9.11000, 1.0
9.12000, 2.0
9.13000, 5.0
9.14000, 3.0
9.15000, 2.0
9.16000, 4.0
9.17000, 5.0
9.18000, 4.0
9.19000, 3.0
9.20000, 2.0
9.21000, 5.0
9.22000, 4.0
9.23000, 0.0
9.24000, 1.0
9.25000, 1.0
9.26000, 2.0
9.27000, 2.0
9.28000, 4.0
9.29000, 0.0
9.30000, 2.0
9.31000, 2.0
9.32000, 2.0
9.33000, 4.0
9.34000, 3.0
9.35000, 0.0
9.36000, 1.0
9.37000, 2.0
9.38000, 1.0
9.39000, 1.0
9.40000, 3.0
9.41000, 3.0
9.42000, 1.0
9.43000, 1.0
9.44000, 2.0
9.45000, 0.0
9.46000, 3.0
9.47000, 2.0
9.48000, 1.0
9.49000, 3.0
9.50000, 3.0
9.51000, 0.0
9.52000, 4.0
9.53000, 3.0
9.54000, 2.0
9.55000, 4.0
9.56000, 2.0
9.57000, 4.0
9.58000, 2.0
9.59000, 3.0
9.60000, 1.0
9.61000, 2.0
9.62000, 1.0
9.63000, 0.0
9.64000, 2.0
9.65000, 1.0
9.66000, 0.0
9.67000, 4.0
9.68000, 2.0
9.69000, 0.0
9.70000, 1.0
9.71000, 0.0
9.72000, 0.0
9.73000, 0.0
9.74000, 0.0
9.75000, 1.0
9.76000, 0.0
9.77000, 3.0
9.78000, 1.0
9.79000, 0.0
9.80000, 1.0
9.81000, 0.0
9.82000, 2.0
9.83000, 2.0
9.84000, 0.0
9.85000, 1.0
9.86000, 2.0
9.87000, 0.0
9.88000, 0.0
9.89000, 1.0
9.90000, 0.0
9.91000, 1.0
9.92000, 0.0
9.93000, 1.0
9.94000, 0.0
9.95000, 1.0
9.96000, 0.0
9.97000, 0.0
9.98000, 0.0
9.99000, 0.0
10.00000, 0.0
10.01000, 1.0
10.02000, 0.0
10.03000, 0.0
10.04000, 0.0
10.05000, 0.0
10.06000, 0.0
10.07000, 0.0
10.08000, 0.0
10.09000, 0.0
10.10000, 0.0
10.11000, 0.0
10.12000, 0.0
10.13000, 0.0
10.13500, 0.0
#ENDOFDATA   :