File: Spectras 20250424/20250425_10K_C7_2.txt
#FORMAT      : EMSA/MAS Spectral Data File
#VERSION     : 1.0
#TITLE       : 20250425_10K_C7_2
#DATE        : 24-APR-2025
#TIME        : 10:41
#OWNER       :
#NPOINTS     : 2048.0
#NCOLUMNS    : 1.0
#XUNITS      : keV
#YUNITS      : counts
#DATATYPE    : XY
#XPERCHAN    : 0.005
#OFFSET      : -0.1
#SIGNALTYPE  : EDS
#CHOFFSET    : 20.0
#LIVETIME    : 60.0
#REALTIME    : 61.5883
#BEAMKV      : 10.0
#MAGCAM      : 330.0
#XTILTSTGE   : 0.0
#AZIMANGLE   : 0.0
#ELEVANGLE   : 29.0
#XPOSITION mm: 1.8218
#YPOSITION mm: -0.9598
#ZPOSITION mm: 13.5200
##OXINSTPT   : 2
##OXINSTSTROB: 67.53
#SPECTRUM    : Spectral Data Starts Here
-0.10000, 0.0
-0.09000, 1.0
-0.08000, 0.0
-0.07000, 0.0
-0.06000, 5.0
-0.05000, 15.0
-0.04000, 38.0
-0.03000, 72.0
-0.02000, 129.0
-0.01000, 241.0
0.00000, 368.0
0.01000, 559.0
0.02000, 723.0
0.03000, 928.0
0.04000, 1073.0
0.05000, 1063.0
0.06000, 1019.0
0.07000, 875.0
0.08000, 678.0
0.09000, 537.0
0.10000, 438.0
0.11000, 423.0
0.12000, 445.0
0.13000, 512.0
0.14000, 629.0
0.15000, 655.0
0.16000, 660.0
0.17000, 644.0
0.18000, 589.0
0.19000, 506.0
0.20000, 398.0
0.21000, 344.0
0.22000, 256.0
0.23000, 243.0
0.24000, 204.0
0.25000, 202.0
0.26000, 180.0
0.27000, 197.0
0.28000, 147.0
0.29000, 160.0
0.30000, 129.0
0.31000, 117.0
0.32000, 85.0
0.33000, 71.0
0.34000, 71.0
0.35000, 63.0
0.36000, 68.0
0.37000, 76.0
0.38000, 78.0
0.39000, 86.0
0.40000, 82.0
0.41000, 90.0
0.42000, 87.0
0.43000, 99.0
0.44000, 122.0
0.45000, 158.0
0.46000, 175.0
0.47000, 250.0
0.48000, 331.0
0.49000, 425.0
0.50000, 493.0
0.51000, 559.0
0.52000, 617.0
0.53000, 588.0
0.54000, 611.0
0.55000, 487.0
0.56000, 428.0
0.57000, 366.0
0.58000, 299.0
0.59000, 262.0
0.60000, 232.0
0.61000, 193.0
0.62000, 174.0
0.63000, 180.0
0.64000, 176.0
0.65000, 168.0
0.66000, 186.0
0.67000, 183.0
0.68000, 195.0
0.69000, 205.0
0.70000, 174.0
0.71000, 177.0
0.72000, 175.0
0.73000, 182.0
0.74000, 184.0
0.75000, 195.0
0.76000, 188.0
0.77000, 204.0
0.78000, 205.0
0.79000, 201.0
0.80000, 198.0
0.81000, 213.0
0.82000, 216.0
0.83000, 214.0
0.84000, 218.0
0.85000, 228.0
0.86000, 224.0
0.87000, 238.0
0.88000, 255.0
0.89000, 213.0
0.90000, 242.0
0.91000, 226.0
0.92000, 221.0
0.93000, 232.0
0.94000, 226.0
0.95000, 224.0
0.96000, 256.0
0.97000, 236.0
0.98000, 234.0
0.99000, 214.0
1.00000, 245.0
1.01000, 236.0
1.02000, 246.0
1.03000, 249.0
1.04000, 236.0
1.05000, 236.0
1.06000, 237.0
1.07000, 250.0
1.08000, 236.0
1.09000, 235.0
1.10000, 253.0
1.11000, 236.0
1.12000, 235.0
1.13000, 237.0
1.14000, 232.0
1.15000, 252.0
1.16000, 227.0
1.17000, 230.0
1.18000, 211.0
1.19000, 244.0
1.20000, 257.0
1.21000, 220.0
1.22000, 244.0
1.23000, 246.0
1.24000, 259.0
1.25000, 223.0
1.26000, 258.0
1.27000, 257.0
1.28000, 242.0
1.29000, 247.0
1.30000, 243.0
1.31000, 229.0
1.32000, 263.0
1.33000, 239.0
1.34000, 243.0
1.35000, 222.0
1.36000, 248.0
1.37000, 236.0
1.38000, 243.0
1.39000, 242.0
1.40000, 242.0
1.41000, 240.0
1.42000, 244.0
1.43000, 237.0
1.44000, 258.0
1.45000, 248.0
1.46000, 227.0
1.47000, 223.0
1.48000, 252.0
1.49000, 245.0
1.50000, 234.0
1.51000, 241.0
1.52000, 251.0
1.53000, 246.0
1.54000, 247.0
1.55000, 253.0
1.56000, 231.0
1.57000, 254.0
1.58000, 220.0
1.59000, 237.0
1.60000, 226.0
1.61000, 262.0
1.62000, 233.0
1.63000, 326.0
1.64000, 437.0
1.65000, 602.0
1.66000, 844.0
1.67000, 1275.0
1.68000, 1809.0
1.69000, 2556.0
1.70000, 3287.0
1.71000, 4133.0
1.72000, 4760.0
1.73000, 5535.0
1.74000, 5567.0
1.75000, 5646.0
1.76000, 5310.0
1.77000, 4589.0
1.78000, 3709.0
1.79000, 2993.0
1.80000, 2274.0
1.81000, 1687.0
1.82000, 1211.0
1.83000, 916.0
1.84000, 666.0
1.85000, 539.0
1.86000, 455.0
1.87000, 364.0
1.88000, 290.0
1.89000, 272.0
1.90000, 229.0
1.91000, 235.0
1.92000, 209.0
1.93000, 191.0
1.94000, 166.0
1.95000, 174.0
1.96000, 186.0
1.97000, 213.0
1.98000, 228.0
1.99000, 244.0
2.00000, 222.0
2.01000, 229.0
2.02000, 245.0
2.03000, 239.0
2.04000, 261.0
2.05000, 228.0
2.06000, 222.0
2.07000, 199.0
2.08000, 240.0
2.09000, 200.0
2.10000, 178.0
2.11000, 185.0
2.12000, 189.0
2.13000, 180.0
2.14000, 192.0
2.15000, 187.0
2.16000, 208.0
2.17000, 227.0
2.18000, 247.0
2.19000, 344.0
2.20000, 452.0
2.21000, 630.0
2.22000, 945.0
2.23000, 1344.0
2.24000, 1872.0
2.25000, 2390.0
2.26000, 3160.0
2.27000, 3766.0
2.28000, 4426.0
2.29000, 4873.0
2.30000, 5309.0
2.31000, 5359.0
2.32000, 5149.0
2.33000, 4947.0
2.34000, 4352.0
2.35000, 3685.0
2.36000, 3028.0
2.37000, 2486.0
2.38000, 2191.0
2.39000, 1874.0
2.40000, 1611.0
2.41000, 1368.0
2.42000, 1224.0
2.43000, 1056.0
2.44000, 998.0
2.45000, 876.0
2.46000, 830.0
2.47000, 677.0
2.48000, 644.0
2.49000, 611.0
2.50000, 514.0
2.51000, 472.0
2.52000, 374.0
2.53000, 336.0
2.54000, 287.0
2.55000, 248.0
2.56000, 199.0
2.57000, 185.0
2.58000, 186.0
2.59000, 165.0
2.60000, 154.0
2.61000, 131.0
2.62000, 126.0
2.63000, 116.0
2.64000, 126.0
2.65000, 119.0
2.66000, 140.0
2.67000, 100.0
2.68000, 115.0
2.69000, 95.0
2.70000, 89.0
2.71000, 102.0
2.72000, 96.0
2.73000, 107.0
2.74000, 93.0
2.75000, 101.0
2.76000, 82.0
2.77000, 96.0
2.78000, 113.0
2.79000, 87.0
2.80000, 102.0
2.81000, 118.0
2.82000, 126.0
2.83000, 99.0
2.84000, 93.0
2.85000, 104.0
2.86000, 100.0
2.87000, 95.0
2.88000, 103.0
2.89000, 92.0
2.90000, 101.0
2.91000, 90.0
2.92000, 100.0
2.93000, 79.0
2.94000, 87.0
2.95000, 92.0
2.96000, 77.0
2.97000, 75.0
2.98000, 88.0
2.99000, 87.0
3.00000, 86.0
3.01000, 81.0
3.02000, 94.0
3.03000, 68.0
3.04000, 81.0
3.05000, 75.0
3.06000, 66.0
3.07000, 66.0
3.08000, 81.0
3.09000, 83.0
3.10000, 81.0
3.11000, 79.0
3.12000, 75.0
3.13000, 87.0
3.14000, 79.0
3.15000, 77.0
3.16000, 72.0
3.17000, 80.0
3.18000, 94.0
3.19000, 70.0
3.20000, 84.0
3.21000, 73.0
3.22000, 87.0
3.23000, 76.0
3.24000, 77.0
3.25000, 76.0
3.26000, 85.0
3.27000, 81.0
3.28000, 73.0
3.29000, 74.0
3.30000, 86.0
3.31000, 95.0
3.32000, 78.0
3.33000, 73.0
3.34000, 65.0
3.35000, 81.0
3.36000, 76.0
3.37000, 83.0
3.38000, 68.0
3.39000, 90.0
3.40000, 74.0
3.41000, 88.0
3.42000, 65.0
3.43000, 67.0
3.44000, 71.0
3.45000, 81.0
3.46000, 73.0
3.47000, 77.0
3.48000, 79.0
3.49000, 68.0
3.50000, 78.0
3.51000, 76.0
3.52000, 73.0
3.53000, 71.0
3.54000, 85.0
3.55000, 76.0
3.56000, 75.0
3.57000, 70.0
3.58000, 64.0
3.59000, 64.0
3.60000, 60.0
3.61000, 69.0
3.62000, 70.0
3.63000, 60.0
3.64000, 68.0
3.65000, 79.0
3.66000, 69.0
3.67000, 77.0
3.68000, 63.0
3.69000, 59.0
3.70000, 63.0
3.71000, 75.0
3.72000, 65.0
3.73000, 56.0
3.74000, 65.0
3.75000, 75.0
3.76000, 73.0
3.77000, 78.0
3.78000, 56.0
3.79000, 67.0
3.80000, 65.0
3.81000, 61.0
3.82000, 63.0
3.83000, 65.0
3.84000, 65.0
3.85000, 62.0
3.86000, 63.0
3.87000, 65.0
3.88000, 61.0
3.89000, 58.0
3.90000, 63.0
3.91000, 53.0
3.92000, 66.0
3.93000, 82.0
3.94000, 63.0
3.95000, 72.0
3.96000, 56.0
3.97000, 61.0
3.98000, 62.0
3.99000, 56.0
4.00000, 73.0
4.01000, 71.0
4.02000, 61.0
4.03000, 69.0
4.04000, 68.0
4.05000, 71.0
4.06000, 83.0
4.07000, 57.0
4.08000, 67.0
4.09000, 70.0
4.10000, 58.0
4.11000, 69.0
4.12000, 64.0
4.13000, 67.0
4.14000, 56.0
4.15000, 62.0
4.16000, 65.0
4.17000, 50.0
4.18000, 58.0
4.19000, 70.0
4.20000, 61.0
4.21000, 54.0
4.22000, 64.0
4.23000, 59.0
4.24000, 46.0
4.25000, 60.0
4.26000, 50.0
4.27000, 55.0
4.28000, 45.0
4.29000, 56.0
4.30000, 53.0
4.31000, 61.0
4.32000, 58.0
4.33000, 56.0
4.34000, 53.0
4.35000, 48.0
4.36000, 52.0
4.37000, 75.0
4.38000, 50.0
4.39000, 53.0
4.40000, 59.0
4.41000, 50.0
4.42000, 61.0
4.43000, 53.0
4.44000, 54.0
4.45000, 41.0
4.46000, 48.0
4.47000, 58.0
4.48000, 56.0
4.49000, 40.0
4.50000, 49.0
4.51000, 55.0
4.52000, 60.0
4.53000, 56.0
4.54000, 71.0
4.55000, 56.0
4.56000, 69.0
4.57000, 56.0
4.58000, 55.0
4.59000, 51.0
4.60000, 56.0
4.61000, 52.0
4.62000, 61.0
4.63000, 50.0
4.64000, 60.0
4.65000, 65.0
4.66000, 57.0
4.67000, 53.0
4.68000, 54.0
4.69000, 57.0
4.70000, 53.0
4.71000, 52.0
4.72000, 47.0
4.73000, 54.0
4.74000, 46.0
4.75000, 65.0
4.76000, 44.0
4.77000, 39.0
4.78000, 56.0
4.79000, 42.0
4.80000, 57.0
4.81000, 45.0
4.82000, 40.0
4.83000, 50.0
4.84000, 45.0
4.85000, 39.0
4.86000, 48.0
4.87000, 45.0
4.88000, 52.0
4.89000, 42.0
4.90000, 60.0
4.91000, 44.0
4.92000, 38.0
4.93000, 44.0
4.94000, 39.0
4.95000, 47.0
4.96000, 36.0
4.97000, 57.0
4.98000, 39.0
4.99000, 45.0
5.00000, 41.0
5.01000, 48.0
5.02000, 42.0
5.03000, 39.0
5.04000, 43.0
5.05000, 43.0
5.06000, 43.0
5.07000, 50.0
5.08000, 35.0
5.09000, 50.0
5.10000, 38.0
5.11000, 43.0
5.12000, 41.0
5.13000, 48.0
5.14000, 50.0
5.15000, 49.0
5.16000, 42.0
5.17000, 45.0
5.18000, 40.0
5.19000, 43.0
5.20000, 30.0
5.21000, 39.0
5.22000, 50.0
5.23000, 47.0
5.24000, 35.0
5.25000, 40.0
5.26000, 36.0
5.27000, 37.0
5.28000, 40.0
5.29000, 36.0
5.30000, 51.0
5.31000, 41.0
5.32000, 29.0
5.33000, 33.0
5.34000, 33.0
5.35000, 39.0
5.36000, 38.0
5.37000, 47.0
5.38000, 38.0
5.39000, 35.0
5.40000, 36.0
5.41000, 39.0
5.42000, 30.0
5.43000, 32.0
5.44000, 37.0
5.45000, 36.0
5.46000, 38.0
5.47000, 39.0
5.48000, 37.0
5.49000, 29.0
5.50000, 33.0
5.51000, 41.0
5.52000, 36.0
5.53000, 40.0
5.54000, 38.0
5.55000, 42.0
5.56000, 38.0
5.57000, 45.0
5.58000, 36.0
5.59000, 35.0
5.60000, 34.0
5.61000, 32.0
5.62000, 27.0
5.63000, 35.0
5.64000, 51.0
5.65000, 31.0
5.66000, 28.0
5.67000, 27.0
5.68000, 36.0
5.69000, 34.0
5.70000, 40.0
5.71000, 23.0
5.72000, 39.0
5.73000, 36.0
5.74000, 33.0
5.75000, 31.0
5.76000, 42.0
5.77000, 42.0
5.78000, 29.0
5.79000, 39.0
5.80000, 31.0
5.81000, 44.0
5.82000, 32.0
5.83000, 33.0
5.84000, 32.0
5.85000, 31.0
5.86000, 30.0
5.87000, 28.0
5.88000, 29.0
5.89000, 25.0
5.90000, 40.0
5.91000, 35.0
5.92000, 26.0
5.93000, 31.0
5.94000, 31.0
5.95000, 35.0
5.96000, 25.0
5.97000, 39.0
5.98000, 29.0
5.99000, 36.0
6.00000, 38.0
6.01000, 42.0
6.02000, 31.0
6.03000, 30.0
6.04000, 36.0
6.05000, 41.0
6.06000, 27.0
6.07000, 24.0
6.08000, 34.0
6.09000, 38.0
6.10000, 36.0
6.11000, 18.0
6.12000, 26.0
6.13000, 31.0
6.14000, 51.0
6.15000, 26.0
6.16000, 30.0
6.17000, 30.0
6.18000, 25.0
6.19000, 34.0
6.20000, 34.0
6.21000, 17.0
6.22000, 44.0
6.23000, 29.0
6.24000, 27.0
6.25000, 21.0
6.26000, 33.0
6.27000, 28.0
6.28000, 29.0
6.29000, 35.0
6.30000, 26.0
6.31000, 22.0
6.32000, 30.0
6.33000, 19.0
6.34000, 27.0
6.35000, 28.0
6.36000, 36.0
6.37000, 26.0
6.38000, 19.0
6.39000, 32.0
6.40000, 22.0
6.41000, 32.0
6.42000, 24.0
6.43000, 37.0
6.44000, 31.0
6.45000, 27.0
6.46000, 21.0
6.47000, 29.0
6.48000, 26.0
6.49000, 33.0
6.50000, 29.0
6.51000, 22.0
6.52000, 23.0
6.53000, 30.0
6.54000, 20.0
6.55000, 22.0
6.56000, 31.0
6.57000, 21.0
6.58000, 29.0
6.59000, 29.0
6.60000, 25.0
6.61000, 18.0
6.62000, 26.0
6.63000, 32.0
6.64000, 26.0
6.65000, 26.0
6.66000, 21.0
6.67000, 27.0
6.68000, 26.0
6.69000, 20.0
6.70000, 26.0
6.71000, 31.0
6.72000, 26.0
6.73000, 24.0
6.74000, 17.0
6.75000, 22.0
6.76000, 26.0
6.77000, 21.0
6.78000, 28.0
6.79000, 25.0
6.80000, 22.0
6.81000, 29.0
6.82000, 30.0
6.83000, 28.0
6.84000, 23.0
6.85000, 25.0
6.86000, 23.0
6.87000, 23.0
6.88000, 17.0
6.89000, 19.0
6.90000, 24.0
6.91000, 28.0
6.92000, 27.0
6.93000, 29.0
6.94000, 30.0
6.95000, 22.0
6.96000, 26.0
6.97000, 20.0
6.98000, 30.0
6.99000, 19.0
7.00000, 20.0
7.01000, 23.0
7.02000, 22.0
7.03000, 16.0
7.04000, 21.0
7.05000, 23.0
7.06000, 13.0
7.07000, 14.0
7.08000, 23.0
7.09000, 19.0
7.10000, 27.0
7.11000, 22.0
7.12000, 24.0
7.13000, 24.0
7.14000, 31.0
7.15000, 18.0
7.16000, 20.0
7.17000, 23.0
7.18000, 15.0
7.19000, 17.0
7.20000, 12.0
7.21000, 19.0
7.22000, 30.0
7.23000, 20.0
7.24000, 21.0
7.25000, 15.0
7.26000, 17.0
7.27000, 16.0
7.28000, 24.0
7.29000, 25.0
7.30000, 22.0
7.31000, 11.0
7.32000, 15.0
7.33000, 21.0
7.34000, 14.0
7.35000, 24.0
7.36000, 23.0
7.37000, 24.0
7.38000, 19.0
7.39000, 17.0
7.40000, 17.0
7.41000, 26.0
7.42000, 15.0
7.43000, 18.0
7.44000, 19.0
7.45000, 19.0
7.46000, 24.0
7.47000, 26.0
7.48000, 20.0
7.49000, 27.0
7.50000, 12.0
7.51000, 11.0
7.52000, 19.0
7.53000, 19.0
7.54000, 14.0
7.55000, 26.0
7.56000, 22.0
7.57000, 20.0
7.58000, 19.0
7.59000, 16.0
7.60000, 16.0
7.61000, 12.0
7.62000, 16.0
7.63000, 20.0
7.64000, 19.0
7.65000, 14.0
7.66000, 10.0
7.67000, 8.0
7.68000, 14.0
7.69000, 15.0
7.70000, 21.0
7.71000, 13.0
7.72000, 16.0
7.73000, 10.0
7.74000, 17.0
7.75000, 22.0
7.76000, 12.0
7.77000, 15.0
7.78000, 10.0
7.79000, 14.0
7.80000, 16.0
7.81000, 14.0
7.82000, 13.0
7.83000, 16.0
7.84000, 11.0
7.85000, 10.0
7.86000, 12.0
7.87000, 21.0
7.88000, 14.0
7.89000, 24.0
7.90000, 18.0
7.91000, 9.0
7.92000, 19.0
7.93000, 13.0
7.94000, 13.0
7.95000, 12.0
7.96000, 21.0
7.97000, 15.0
7.98000, 16.0
7.99000, 12.0
8.00000, 19.0
8.01000, 8.0
8.02000, 15.0
8.03000, 10.0
8.04000, 18.0
8.05000, 19.0
8.06000, 13.0
8.07000, 10.0
8.08000, 22.0
8.09000, 14.0
8.10000, 25.0
8.11000, 16.0
8.12000, 9.0
8.13000, 12.0
8.14000, 17.0
8.15000, 11.0
8.16000, 14.0
8.17000, 12.0
8.18000, 9.0
8.19000, 10.0
8.20000, 16.0
8.21000, 10.0
8.22000, 16.0
8.23000, 15.0
8.24000, 12.0
8.25000, 11.0
8.26000, 13.0
8.27000, 12.0
8.28000, 12.0
8.29000, 15.0
8.30000, 12.0
8.31000, 13.0
8.32000, 21.0
8.33000, 11.0
8.34000, 15.0
8.35000, 17.0
8.36000, 5.0
8.37000, 14.0
8.38000, 12.0
8.39000, 12.0
8.40000, 13.0
8.41000, 14.0
8.42000, 6.0
8.43000, 8.0
8.44000, 10.0
8.45000, 8.0
8.46000, 12.0
8.47000, 6.0
8.48000, 10.0
8.49000, 21.0
8.50000, 13.0
8.51000, 15.0
8.52000, 16.0
8.53000, 11.0
8.54000, 10.0
8.55000, 10.0
8.56000, 12.0
8.57000, 12.0
8.58000, 8.0
8.59000, 10.0
8.60000, 14.0
8.61000, 9.0
8.62000, 17.0
8.63000, 11.0
8.64000, 12.0
8.65000, 10.0
8.66000, 12.0
8.67000, 16.0
8.68000, 19.0
8.69000, 13.0
8.70000, 8.0
8.71000, 6.0
8.72000, 12.0
8.73000, 8.0
8.74000, 11.0
8.75000, 9.0
8.76000, 12.0
8.77000, 15.0
8.78000, 12.0
8.79000, 13.0
8.80000, 8.0
8.81000, 11.0
8.82000, 4.0
8.83000, 8.0
8.84000, 11.0
8.85000, 7.0
8.86000, 14.0
8.87000, 13.0
8.88000, 6.0
8.89000, 12.0
8.90000, 16.0
8.91000, 10.0
8.92000, 7.0
8.93000, 13.0
8.94000, 11.0
8.95000, 8.0
8.96000, 8.0
8.97000, 5.0
8.98000, 9.0
8.99000, 8.0
9.00000, 8.0
9.01000, 11.0
9.02000, 11.0
9.03000, 6.0
9.04000, 11.0
9.05000, 6.0
9.06000, 10.0
9.07000, 7.0
9.08000, 9.0
9.09000, 7.0
9.10000, 8.0
9.11000, 6.0
9.12000, 7.0
9.13000, 7.0
9.14000, 10.0
9.15000, 9.0
9.16000, 6.0
9.17000, 4.0
9.18000, 3.0
9.19000, 5.0
9.20000, 2.0
9.21000, 7.0
9.22000, 11.0
9.23000, 5.0
9.24000, 8.0
9.25000, 9.0
9.26000, 8.0
9.27000, 7.0
9.28000, 7.0
9.29000, 7.0
9.30000, 8.0
9.31000, 6.0
9.32000, 6.0
9.33000, 6.0
9.34000, 9.0
9.35000, 7.0
9.36000, 4.0
9.37000, 5.0
9.38000, 4.0
9.39000, 2.0
9.40000, 4.0
9.41000, 11.0
9.42000, 5.0
9.43000, 5.0
9.44000, 4.0
9.45000, 9.0
9.46000, 3.0
9.47000, 8.0
9.48000, 5.0
9.49000, 7.0
9.50000, 5.0
9.51000, 4.0
9.52000, 4.0
9.53000, 6.0
9.54000, 4.0
9.55000, 3.0
9.56000, 0.0
9.57000, 4.0
9.58000, 7.0
9.59000, 3.0
9.60000, 5.0
9.61000, 3.0
9.62000, 10.0
9.63000, 4.0
9.64000, 3.0
9.65000, 5.0
9.66000, 3.0
9.67000, 2.0
9.68000, 2.0
9.69000, 2.0
9.70000, 4.0
9.71000, 1.0
9.72000, 4.0
9.73000, 2.0
9.74000, 1.0
9.75000, 2.0
9.76000, 2.0
9.77000, 2.0
9.78000, 2.0
9.79000, 2.0
9.80000, 2.0
9.81000, 3.0
9.82000, 5.0
9.83000, 0.0
9.84000, 1.0
9.85000, 1.0
9.86000, 1.0
9.87000, 3.0
9.88000, 2.0
9.89000, 3.0
9.90000, 1.0
9.91000, 0.0
9.92000, 1.0
9.93000, 0.0
9.94000, 1.0
9.95000, 1.0
9.96000, 0.0
9.97000, 0.0
9.98000, 0.0
9.99000, 1.0
10.00000, 0.0
10.01000, 0.0
10.02000, 2.0
10.03000, 0.0
10.04000, 0.0
10.05000, 0.0
10.06000, 0.0
10.07000, 0.0
10.08000, 0.0
10.09000, 0.0
10.10000, 0.0
10.11000, 0.0
10.12000, 0.0
10.13000, 0.0
10.13500, 0.0
#ENDOFDATA   :