File: Spectras 20250424/20250425_10K_D2_2.txt
#FORMAT      : EMSA/MAS Spectral Data File
#VERSION     : 1.0
#TITLE       : 20250425_10K_D2_2
#DATE        : 24-APR-2025
#TIME        : 10:28
#OWNER       :
#NPOINTS     : 2048.0
#NCOLUMNS    : 1.0
#XUNITS      : keV
#YUNITS      : counts
#DATATYPE    : XY
#XPERCHAN    : 0.005
#OFFSET      : -0.1
#SIGNALTYPE  : EDS
#CHOFFSET    : 20.0
#LIVETIME    : 60.0063
#REALTIME    : 61.8839
#BEAMKV      : 10.0
#MAGCAM      : 1800.0
#XTILTSTGE   : 0.0
#AZIMANGLE   : 0.0
#ELEVANGLE   : 29.0
#XPOSITION mm: 2.4460
#YPOSITION mm: 0.1345
#ZPOSITION mm: 13.5200
##OXINSTPT   : 2
##OXINSTSTROB: 67.59
#SPECTRUM    : Spectral Data Starts Here
-0.10000, 0.0
-0.09000, 1.0
-0.08000, 0.0
-0.07000, 4.0
-0.06000, 0.0
-0.05000, 12.0
-0.04000, 27.0
-0.03000, 68.0
-0.02000, 145.0
-0.01000, 234.0
0.00000, 366.0
0.01000, 581.0
0.02000, 782.0
0.03000, 1010.0
0.04000, 1037.0
0.05000, 1059.0
0.06000, 1006.0
0.07000, 841.0
0.08000, 658.0
0.09000, 454.0
0.10000, 284.0
0.11000, 181.0
0.12000, 114.0
0.13000, 63.0
0.14000, 73.0
0.15000, 45.0
0.16000, 55.0
0.17000, 48.0
0.18000, 41.0
0.19000, 53.0
0.20000, 64.0
0.21000, 65.0
0.22000, 74.0
0.23000, 103.0
0.24000, 89.0
0.25000, 123.0
0.26000, 123.0
0.27000, 129.0
0.28000, 125.0
0.29000, 122.0
0.30000, 98.0
0.31000, 95.0
0.32000, 82.0
0.33000, 90.0
0.34000, 83.0
0.35000, 89.0
0.36000, 94.0
0.37000, 96.0
0.38000, 120.0
0.39000, 137.0
0.40000, 159.0
0.41000, 168.0
0.42000, 235.0
0.43000, 334.0
0.44000, 538.0
0.45000, 818.0
0.46000, 1324.0
0.47000, 2055.0
0.48000, 3032.0
0.49000, 4102.0
0.50000, 5130.0
0.51000, 6031.0
0.52000, 6355.0
0.53000, 6173.0
0.54000, 5404.0
0.55000, 4461.0
0.56000, 3258.0
0.57000, 2225.0
0.58000, 1422.0
0.59000, 831.0
0.60000, 464.0
0.61000, 257.0
0.62000, 179.0
0.63000, 124.0
0.64000, 95.0
0.65000, 84.0
0.66000, 101.0
0.67000, 93.0
0.68000, 98.0
0.69000, 104.0
0.70000, 125.0
0.71000, 121.0
0.72000, 129.0
0.73000, 119.0
0.74000, 129.0
0.75000, 131.0
0.76000, 146.0
0.77000, 136.0
0.78000, 146.0
0.79000, 133.0
0.80000, 161.0
0.81000, 151.0
0.82000, 160.0
0.83000, 152.0
0.84000, 141.0
0.85000, 181.0
0.86000, 165.0
0.87000, 191.0
0.88000, 149.0
0.89000, 178.0
0.90000, 175.0
0.91000, 167.0
0.92000, 173.0
0.93000, 191.0
0.94000, 187.0
0.95000, 189.0
0.96000, 171.0
0.97000, 201.0
0.98000, 186.0
0.99000, 173.0
1.00000, 190.0
1.01000, 206.0
1.02000, 185.0
1.03000, 188.0
1.04000, 209.0
1.05000, 182.0
1.06000, 205.0
1.07000, 186.0
1.08000, 198.0
1.09000, 194.0
1.10000, 195.0
1.11000, 179.0
1.12000, 201.0
1.13000, 201.0
1.14000, 181.0
1.15000, 219.0
1.16000, 202.0
1.17000, 212.0
1.18000, 198.0
1.19000, 188.0
1.20000, 196.0
1.21000, 206.0
1.22000, 196.0
1.23000, 197.0
1.24000, 206.0
1.25000, 194.0
1.26000, 188.0
1.27000, 200.0
1.28000, 194.0
1.29000, 200.0
1.30000, 203.0
1.31000, 187.0
1.32000, 203.0
1.33000, 203.0
1.34000, 187.0
1.35000, 209.0
1.36000, 191.0
1.37000, 189.0
1.38000, 198.0
1.39000, 204.0
1.40000, 219.0
1.41000, 197.0
1.42000, 212.0
1.43000, 192.0
1.44000, 214.0
1.45000, 204.0
1.46000, 205.0
1.47000, 213.0
1.48000, 218.0
1.49000, 246.0
1.50000, 229.0
1.51000, 221.0
1.52000, 219.0
1.53000, 213.0
1.54000, 224.0
1.55000, 239.0
1.56000, 239.0
1.57000, 196.0
1.58000, 253.0
1.59000, 260.0
1.60000, 269.0
1.61000, 284.0
1.62000, 370.0
1.63000, 471.0
1.64000, 744.0
1.65000, 1202.0
1.66000, 1923.0
1.67000, 3060.0
1.68000, 4428.0
1.69000, 6370.0
1.70000, 8569.0
1.71000, 10756.0
1.72000, 12578.0
1.73000, 14249.0
1.74000, 14667.0
1.75000, 14585.0
1.76000, 13634.0
1.77000, 11860.0
1.78000, 9761.0
1.79000, 7651.0
1.80000, 5653.0
1.81000, 4034.0
1.82000, 2972.0
1.83000, 2071.0
1.84000, 1473.0
1.85000, 1000.0
1.86000, 778.0
1.87000, 615.0
1.88000, 440.0
1.89000, 360.0
1.90000, 263.0
1.91000, 215.0
1.92000, 179.0
1.93000, 132.0
1.94000, 116.0
1.95000, 99.0
1.96000, 109.0
1.97000, 94.0
1.98000, 96.0
1.99000, 92.0
2.00000, 96.0
2.01000, 104.0
2.02000, 84.0
2.03000, 94.0
2.04000, 94.0
2.05000, 83.0
2.06000, 87.0
2.07000, 90.0
2.08000, 71.0
2.09000, 89.0
2.10000, 89.0
2.11000, 82.0
2.12000, 93.0
2.13000, 93.0
2.14000, 75.0
2.15000, 89.0
2.16000, 74.0
2.17000, 91.0
2.18000, 86.0
2.19000, 77.0
2.20000, 99.0
2.21000, 97.0
2.22000, 101.0
2.23000, 77.0
2.24000, 112.0
2.25000, 100.0
2.26000, 113.0
2.27000, 112.0
2.28000, 108.0
2.29000, 115.0
2.30000, 112.0
2.31000, 108.0
2.32000, 116.0
2.33000, 91.0
2.34000, 99.0
2.35000, 105.0
2.36000, 93.0
2.37000, 103.0
2.38000, 92.0
2.39000, 93.0
2.40000, 97.0
2.41000, 90.0
2.42000, 94.0
2.43000, 93.0
2.44000, 76.0
2.45000, 86.0
2.46000, 83.0
2.47000, 86.0
2.48000, 75.0
2.49000, 81.0
2.50000, 73.0
2.51000, 78.0
2.52000, 81.0
2.53000, 91.0
2.54000, 71.0
2.55000, 87.0
2.56000, 74.0
2.57000, 84.0
2.58000, 69.0
2.59000, 86.0
2.60000, 84.0
2.61000, 66.0
2.62000, 61.0
2.63000, 83.0
2.64000, 68.0
2.65000, 81.0
2.66000, 85.0
2.67000, 63.0
2.68000, 69.0
2.69000, 72.0
2.70000, 69.0
2.71000, 63.0
2.72000, 89.0
2.73000, 63.0
2.74000, 77.0
2.75000, 69.0
2.76000, 75.0
2.77000, 57.0
2.78000, 60.0
2.79000, 77.0
2.80000, 72.0
2.81000, 78.0
2.82000, 76.0
2.83000, 81.0
2.84000, 75.0
2.85000, 70.0
2.86000, 62.0
2.87000, 86.0
2.88000, 75.0
2.89000, 73.0
2.90000, 67.0
2.91000, 65.0
2.92000, 70.0
2.93000, 56.0
2.94000, 61.0
2.95000, 58.0
2.96000, 62.0
2.97000, 62.0
2.98000, 74.0
2.99000, 65.0
3.00000, 75.0
3.01000, 85.0
3.02000, 62.0
3.03000, 66.0
3.04000, 54.0
3.05000, 59.0
3.06000, 63.0
3.07000, 72.0
3.08000, 60.0
3.09000, 68.0
3.10000, 66.0
3.11000, 64.0
3.12000, 69.0
3.13000, 66.0
3.14000, 65.0
3.15000, 82.0
3.16000, 56.0
3.17000, 58.0
3.18000, 72.0
3.19000, 58.0
3.20000, 61.0
3.21000, 55.0
3.22000, 65.0
3.23000, 54.0
3.24000, 66.0
3.25000, 68.0
3.26000, 57.0
3.27000, 63.0
3.28000, 47.0
3.29000, 50.0
3.30000, 69.0
3.31000, 66.0
3.32000, 53.0
3.33000, 65.0
3.34000, 69.0
3.35000, 65.0
3.36000, 55.0
3.37000, 62.0
3.38000, 51.0
3.39000, 73.0
3.40000, 71.0
3.41000, 69.0
3.42000, 53.0
3.43000, 59.0
3.44000, 69.0
3.45000, 78.0
3.46000, 77.0
3.47000, 83.0
3.48000, 83.0
3.49000, 72.0
3.50000, 70.0
3.51000, 82.0
3.52000, 73.0
3.53000, 73.0
3.54000, 62.0
3.55000, 56.0
3.56000, 49.0
3.57000, 60.0
3.58000, 58.0
3.59000, 49.0
3.60000, 43.0
3.61000, 40.0
3.62000, 52.0
3.63000, 57.0
3.64000, 36.0
3.65000, 60.0
3.66000, 58.0
3.67000, 53.0
3.68000, 38.0
3.69000, 42.0
3.70000, 74.0
3.71000, 43.0
3.72000, 52.0
3.73000, 56.0
3.74000, 39.0
3.75000, 39.0
3.76000, 54.0
3.77000, 37.0
3.78000, 60.0
3.79000, 57.0
3.80000, 37.0
3.81000, 42.0
3.82000, 51.0
3.83000, 44.0
3.84000, 47.0
3.85000, 43.0
3.86000, 49.0
3.87000, 42.0
3.88000, 42.0
3.89000, 48.0
3.90000, 48.0
3.91000, 53.0
3.92000, 39.0
3.93000, 49.0
3.94000, 43.0
3.95000, 46.0
3.96000, 50.0
3.97000, 44.0
3.98000, 41.0
3.99000, 35.0
4.00000, 42.0
4.01000, 51.0
4.02000, 53.0
4.03000, 36.0
4.04000, 52.0
4.05000, 37.0
4.06000, 51.0
4.07000, 34.0
4.08000, 39.0
4.09000, 40.0
4.10000, 38.0
4.11000, 46.0
4.12000, 52.0
4.13000, 47.0
4.14000, 43.0
4.15000, 54.0
4.16000, 46.0
4.17000, 34.0
4.18000, 46.0
4.19000, 40.0
4.20000, 32.0
4.21000, 44.0
4.22000, 40.0
4.23000, 24.0
4.24000, 36.0
4.25000, 37.0
4.26000, 36.0
4.27000, 37.0
4.28000, 32.0
4.29000, 39.0
4.30000, 41.0
4.31000, 33.0
4.32000, 43.0
4.33000, 46.0
4.34000, 40.0
4.35000, 34.0
4.36000, 42.0
4.37000, 40.0
4.38000, 37.0
4.39000, 44.0
4.40000, 38.0
4.41000, 23.0
4.42000, 33.0
4.43000, 39.0
4.44000, 48.0
4.45000, 40.0
4.46000, 48.0
4.47000, 42.0
4.48000, 40.0
4.49000, 37.0
4.50000, 36.0
4.51000, 35.0
4.52000, 35.0
4.53000, 30.0
4.54000, 33.0
4.55000, 32.0
4.56000, 24.0
4.57000, 36.0
4.58000, 27.0
4.59000, 32.0
4.60000, 26.0
4.61000, 38.0
4.62000, 35.0
4.63000, 31.0
4.64000, 41.0
4.65000, 34.0
4.66000, 36.0
4.67000, 43.0
4.68000, 26.0
4.69000, 34.0
4.70000, 30.0
4.71000, 22.0
4.72000, 28.0
4.73000, 31.0
4.74000, 26.0
4.75000, 31.0
4.76000, 34.0
4.77000, 28.0
4.78000, 35.0
4.79000, 29.0
4.80000, 35.0
4.81000, 39.0
4.82000, 27.0
4.83000, 28.0
4.84000, 41.0
4.85000, 27.0
4.86000, 31.0
4.87000, 38.0
4.88000, 28.0
4.89000, 37.0
4.90000, 32.0
4.91000, 36.0
4.92000, 29.0
4.93000, 28.0
4.94000, 29.0
4.95000, 24.0
4.96000, 29.0
4.97000, 27.0
4.98000, 33.0
4.99000, 27.0
5.00000, 29.0
5.01000, 22.0
5.02000, 30.0
5.03000, 26.0
5.04000, 29.0
5.05000, 23.0
5.06000, 27.0
5.07000, 31.0
5.08000, 19.0
5.09000, 26.0
5.10000, 40.0
5.11000, 29.0
5.12000, 26.0
5.13000, 19.0
5.14000, 24.0
5.15000, 37.0
5.16000, 31.0
5.17000, 21.0
5.18000, 34.0
5.19000, 28.0
5.20000, 24.0
5.21000, 27.0
5.22000, 24.0
5.23000, 24.0
5.24000, 19.0
5.25000, 29.0
5.26000, 31.0
5.27000, 31.0
5.28000, 22.0
5.29000, 14.0
5.30000, 22.0
5.31000, 24.0
5.32000, 27.0
5.33000, 18.0
5.34000, 22.0
5.35000, 25.0
5.36000, 31.0
5.37000, 18.0
5.38000, 24.0
5.39000, 27.0
5.40000, 27.0
5.41000, 28.0
5.42000, 19.0
5.43000, 26.0
5.44000, 21.0
5.45000, 21.0
5.46000, 21.0
5.47000, 20.0
5.48000, 24.0
5.49000, 26.0
5.50000, 22.0
5.51000, 22.0
5.52000, 24.0
5.53000, 21.0
5.54000, 22.0
5.55000, 17.0
5.56000, 22.0
5.57000, 26.0
5.58000, 22.0
5.59000, 24.0
5.60000, 21.0
5.61000, 14.0
5.62000, 21.0
5.63000, 20.0
5.64000, 17.0
5.65000, 19.0
5.66000, 10.0
5.67000, 20.0
5.68000, 22.0
5.69000, 22.0
5.70000, 22.0
5.71000, 23.0
5.72000, 28.0
5.73000, 15.0
5.74000, 20.0
5.75000, 19.0
5.76000, 18.0
5.77000, 27.0
5.78000, 23.0
5.79000, 23.0
5.80000, 26.0
5.81000, 25.0
5.82000, 28.0
5.83000, 20.0
5.84000, 14.0
5.85000, 30.0
5.86000, 14.0
5.87000, 17.0
5.88000, 24.0
5.89000, 18.0
5.90000, 14.0
5.91000, 12.0
5.92000, 12.0
5.93000, 15.0
5.94000, 17.0
5.95000, 18.0
5.96000, 24.0
5.97000, 14.0
5.98000, 30.0
5.99000, 11.0
6.00000, 20.0
6.01000, 18.0
6.02000, 16.0
6.03000, 16.0
6.04000, 28.0
6.05000, 24.0
6.06000, 14.0
6.07000, 16.0
6.08000, 17.0
6.09000, 19.0
6.10000, 13.0
6.11000, 27.0
6.12000, 24.0
6.13000, 19.0
6.14000, 13.0
6.15000, 14.0
6.16000, 14.0
6.17000, 16.0
6.18000, 21.0
6.19000, 9.0
6.20000, 19.0
6.21000, 7.0
6.22000, 12.0
6.23000, 21.0
6.24000, 17.0
6.25000, 15.0
6.26000, 16.0
6.27000, 13.0
6.28000, 14.0
6.29000, 16.0
6.30000, 13.0
6.31000, 14.0
6.32000, 18.0
6.33000, 26.0
6.34000, 9.0
6.35000, 17.0
6.36000, 10.0
6.37000, 13.0
6.38000, 18.0
6.39000, 24.0
6.40000, 10.0
6.41000, 20.0
6.42000, 18.0
6.43000, 20.0
6.44000, 7.0
6.45000, 17.0
6.46000, 14.0
6.47000, 14.0
6.48000, 10.0
6.49000, 22.0
6.50000, 20.0
6.51000, 12.0
6.52000, 13.0
6.53000, 14.0
6.54000, 16.0
6.55000, 25.0
6.56000, 17.0
6.57000, 15.0
6.58000, 8.0
6.59000, 4.0
6.60000, 17.0
6.61000, 14.0
6.62000, 18.0
6.63000, 13.0
6.64000, 11.0
6.65000, 12.0
6.66000, 14.0
6.67000, 11.0
6.68000, 21.0
6.69000, 11.0
6.70000, 8.0
6.71000, 16.0
6.72000, 11.0
6.73000, 9.0
6.74000, 13.0
6.75000, 20.0
6.76000, 17.0
6.77000, 14.0
6.78000, 13.0
6.79000, 9.0
6.80000, 5.0
6.81000, 13.0
6.82000, 9.0
6.83000, 10.0
6.84000, 5.0
6.85000, 11.0
6.86000, 16.0
6.87000, 16.0
6.88000, 15.0
6.89000, 14.0
6.90000, 17.0
6.91000, 18.0
6.92000, 8.0
6.93000, 17.0
6.94000, 13.0
6.95000, 8.0
6.96000, 10.0
6.97000, 10.0
6.98000, 12.0
6.99000, 9.0
7.00000, 5.0
7.01000, 12.0
7.02000, 13.0
7.03000, 13.0
7.04000, 8.0
7.05000, 9.0
7.06000, 11.0
7.07000, 8.0
7.08000, 14.0
7.09000, 8.0
7.10000, 13.0
7.11000, 12.0
7.12000, 7.0
7.13000, 9.0
7.14000, 7.0
7.15000, 10.0
7.16000, 5.0
7.17000, 12.0
7.18000, 16.0
7.19000, 6.0
7.20000, 9.0
7.21000, 12.0
7.22000, 14.0
7.23000, 12.0
7.24000, 17.0
7.25000, 7.0
7.26000, 8.0
7.27000, 3.0
7.28000, 9.0
7.29000, 12.0
7.30000, 12.0
7.31000, 7.0
7.32000, 6.0
7.33000, 10.0
7.34000, 6.0
7.35000, 7.0
7.36000, 5.0
7.37000, 10.0
7.38000, 8.0
7.39000, 11.0
7.40000, 9.0
7.41000, 10.0
7.42000, 11.0
7.43000, 10.0
7.44000, 11.0
7.45000, 10.0
7.46000, 9.0
7.47000, 9.0
7.48000, 9.0
7.49000, 8.0
7.50000, 6.0
7.51000, 9.0
7.52000, 5.0
7.53000, 8.0
7.54000, 10.0
7.55000, 16.0
7.56000, 11.0
7.57000, 7.0
7.58000, 10.0
7.59000, 7.0
7.60000, 7.0
7.61000, 7.0
7.62000, 6.0
7.63000, 6.0
7.64000, 8.0
7.65000, 3.0
7.66000, 8.0
7.67000, 4.0
7.68000, 5.0
7.69000, 10.0
7.70000, 10.0
7.71000, 6.0
7.72000, 5.0
7.73000, 7.0
7.74000, 7.0
7.75000, 9.0
7.76000, 8.0
7.77000, 10.0
7.78000, 1.0
7.79000, 7.0
7.80000, 12.0
7.81000, 9.0
7.82000, 10.0
7.83000, 3.0
7.84000, 8.0
7.85000, 9.0
7.86000, 3.0
7.87000, 16.0
7.88000, 8.0
7.89000, 6.0
7.90000, 8.0
7.91000, 7.0
7.92000, 8.0
7.93000, 6.0
7.94000, 7.0
7.95000, 4.0
7.96000, 5.0
7.97000, 6.0
7.98000, 9.0
7.99000, 7.0
8.00000, 8.0
8.01000, 4.0
8.02000, 3.0
8.03000, 8.0
8.04000, 3.0
8.05000, 5.0
8.06000, 4.0
8.07000, 5.0
8.08000, 4.0
8.09000, 6.0
8.10000, 6.0
8.11000, 5.0
8.12000, 10.0
8.13000, 1.0
8.14000, 4.0
8.15000, 6.0
8.16000, 4.0
8.17000, 7.0
8.18000, 6.0
8.19000, 6.0
8.20000, 7.0
8.21000, 4.0
8.22000, 8.0
8.23000, 5.0
8.24000, 4.0
8.25000, 5.0
8.26000, 4.0
8.27000, 2.0
8.28000, 3.0
8.29000, 10.0
8.30000, 7.0
8.31000, 3.0
8.32000, 6.0
8.33000, 3.0
8.34000, 3.0
8.35000, 6.0
8.36000, 6.0
8.37000, 2.0
8.38000, 8.0
8.39000, 9.0
8.40000, 4.0
8.41000, 9.0
8.42000, 4.0
8.43000, 5.0
8.44000, 2.0
8.45000, 4.0
8.46000, 4.0
8.47000, 5.0
8.48000, 4.0
8.49000, 10.0
8.50000, 3.0
8.51000, 3.0
8.52000, 4.0
8.53000, 4.0
8.54000, 6.0
8.55000, 3.0
8.56000, 8.0
8.57000, 1.0
8.58000, 2.0
8.59000, 3.0
8.60000, 6.0
8.61000, 2.0
8.62000, 7.0
8.63000, 6.0
8.64000, 2.0
8.65000, 3.0
8.66000, 3.0
8.67000, 4.0
8.68000, 7.0
8.69000, 4.0
8.70000, 6.0
8.71000, 1.0
8.72000, 6.0
8.73000, 4.0
8.74000, 2.0
8.75000, 4.0
8.76000, 1.0
8.77000, 3.0
8.78000, 3.0
8.79000, 2.0
8.80000, 3.0
8.81000, 5.0
8.82000, 1.0
8.83000, 4.0
8.84000, 2.0
8.85000, 1.0
8.86000, 1.0
8.87000, 1.0
8.88000, 1.0
8.89000, 4.0
8.90000, 4.0
8.91000, 3.0
8.92000, 5.0
8.93000, 1.0
8.94000, 2.0
8.95000, 1.0
8.96000, 0.0
8.97000, 4.0
8.98000, 3.0
8.99000, 1.0
9.00000, 2.0
9.01000, 2.0
9.02000, 1.0
9.03000, 6.0
9.04000, 4.0
9.05000, 2.0
9.06000, 1.0
9.07000, 5.0
9.08000, 3.0
9.09000, 1.0
9.10000, 2.0
9.11000, 0.0
9.12000, 3.0
9.13000, 4.0
9.14000, 1.0
9.15000, 5.0
9.16000, 1.0
9.17000, 6.0
9.18000, 3.0
9.19000, 0.0
9.20000, 2.0
9.21000, 1.0
9.22000, 1.0
9.23000, 1.0
9.24000, 1.0
9.25000, 0.0
9.26000, 2.0
9.27000, 4.0
9.28000, 1.0
9.29000, 1.0
9.30000, 2.0
9.31000, 0.0
9.32000, 3.0
9.33000, 2.0
9.34000, 1.0
9.35000, 2.0
9.36000, 2.0
9.37000, 2.0
9.38000, 4.0
9.39000, 3.0
9.40000, 1.0
9.41000, 2.0
9.42000, 2.0
9.43000, 2.0
9.44000, 2.0
9.45000, 1.0
9.46000, 1.0
9.47000, 2.0
9.48000, 0.0
9.49000, 2.0
9.50000, 1.0
9.51000, 1.0
9.52000, 2.0
9.53000, 2.0
9.54000, 1.0
9.55000, 2.0
9.56000, 2.0
9.57000, 2.0
9.58000, 1.0
9.59000, 2.0
9.60000, 4.0
9.61000, 0.0
9.62000, 0.0
9.63000, 1.0
9.64000, 0.0
9.65000, 1.0
9.66000, 2.0
9.67000, 0.0
9.68000, 1.0
9.69000, 0.0
9.70000, 1.0
9.71000, 1.0
9.72000, 1.0
9.73000, 0.0
9.74000, 0.0
9.75000, 2.0
9.76000, 1.0
9.77000, 0.0
9.78000, 2.0
9.79000, 0.0
9.80000, 0.0
9.81000, 0.0
9.82000, 1.0
9.83000, 0.0
9.84000, 0.0
9.85000, 1.0
9.86000, 1.0
9.87000, 0.0
9.88000, 0.0
9.89000, 1.0
9.90000, 0.0
9.91000, 1.0
9.92000, 0.0
9.93000, 0.0
9.94000, 1.0
9.95000, 1.0
9.96000, 0.0
9.97000, 0.0
9.98000, 0.0
9.99000, 0.0
10.00000, 0.0
10.01000, 0.0
10.02000, 0.0
10.03000, 0.0
10.04000, 0.0
10.05000, 0.0
10.06000, 0.0
10.07000, 0.0
10.08000, 1.0
10.09000, 0.0
10.10000, 0.0
10.11000, 0.0
10.12000, 0.0
10.13000, 0.0
10.13500, 0.0
#ENDOFDATA   :