File: Spectras 20250424/20250425_10K_D2_area2_3.txt
#FORMAT      : EMSA/MAS Spectral Data File
#VERSION     : 1.0
#TITLE       : 20250425_10K_D2_area2_3
#DATE        : 24-APR-2025
#TIME        : 10:33
#OWNER       :
#NPOINTS     : 2048.0
#NCOLUMNS    : 1.0
#XUNITS      : keV
#YUNITS      : counts
#DATATYPE    : XY
#XPERCHAN    : 0.005
#OFFSET      : -0.1
#SIGNALTYPE  : EDS
#CHOFFSET    : 20.0
#LIVETIME    : 60.0
#REALTIME    : 61.9048
#BEAMKV      : 10.0
#MAGCAM      : 1800.0
#XTILTSTGE   : 0.0
#AZIMANGLE   : 0.0
#ELEVANGLE   : 29.0
#XPOSITION mm: 2.4460
#YPOSITION mm: 0.1345
#ZPOSITION mm: 13.5200
##OXINSTPT   : 2
##OXINSTSTROB: 67.51
#SPECTRUM    : Spectral Data Starts Here
-0.10000, 0.0
-0.09000, 0.0
-0.08000, 0.0
-0.07000, 2.0
-0.06000, 4.0
-0.05000, 12.0
-0.04000, 34.0
-0.03000, 69.0
-0.02000, 144.0
-0.01000, 246.0
0.00000, 358.0
0.01000, 525.0
0.02000, 775.0
0.03000, 918.0
0.04000, 1022.0
0.05000, 1089.0
0.06000, 995.0
0.07000, 867.0
0.08000, 662.0
0.09000, 449.0
0.10000, 286.0
0.11000, 190.0
0.12000, 128.0
0.13000, 71.0
0.14000, 69.0
0.15000, 65.0
0.16000, 66.0
0.17000, 59.0
0.18000, 63.0
0.19000, 54.0
0.20000, 64.0
0.21000, 59.0
0.22000, 75.0
0.23000, 89.0
0.24000, 108.0
0.25000, 117.0
0.26000, 140.0
0.27000, 132.0
0.28000, 131.0
0.29000, 112.0
0.30000, 116.0
0.31000, 95.0
0.32000, 87.0
0.33000, 81.0
0.34000, 73.0
0.35000, 73.0
0.36000, 95.0
0.37000, 110.0
0.38000, 122.0
0.39000, 140.0
0.40000, 153.0
0.41000, 162.0
0.42000, 263.0
0.43000, 344.0
0.44000, 519.0
0.45000, 809.0
0.46000, 1368.0
0.47000, 2098.0
0.48000, 2907.0
0.49000, 3982.0
0.50000, 5015.0
0.51000, 5839.0
0.52000, 6223.0
0.53000, 6279.0
0.54000, 5402.0
0.55000, 4407.0
0.56000, 3321.0
0.57000, 2221.0
0.58000, 1462.0
0.59000, 845.0
0.60000, 495.0
0.61000, 260.0
0.62000, 175.0
0.63000, 120.0
0.64000, 100.0
0.65000, 103.0
0.66000, 115.0
0.67000, 99.0
0.68000, 114.0
0.69000, 114.0
0.70000, 115.0
0.71000, 121.0
0.72000, 119.0
0.73000, 130.0
0.74000, 124.0
0.75000, 146.0
0.76000, 129.0
0.77000, 135.0
0.78000, 143.0
0.79000, 139.0
0.80000, 135.0
0.81000, 156.0
0.82000, 163.0
0.83000, 153.0
0.84000, 153.0
0.85000, 163.0
0.86000, 171.0
0.87000, 169.0
0.88000, 160.0
0.89000, 171.0
0.90000, 180.0
0.91000, 193.0
0.92000, 172.0
0.93000, 182.0
0.94000, 175.0
0.95000, 192.0
0.96000, 197.0
0.97000, 183.0
0.98000, 192.0
0.99000, 182.0
1.00000, 180.0
1.01000, 185.0
1.02000, 190.0
1.03000, 209.0
1.04000, 177.0
1.05000, 198.0
1.06000, 202.0
1.07000, 193.0
1.08000, 206.0
1.09000, 198.0
1.10000, 192.0
1.11000, 174.0
1.12000, 193.0
1.13000, 213.0
1.14000, 195.0
1.15000, 200.0
1.16000, 178.0
1.17000, 205.0
1.18000, 194.0
1.19000, 191.0
1.20000, 212.0
1.21000, 213.0
1.22000, 193.0
1.23000, 190.0
1.24000, 193.0
1.25000, 187.0
1.26000, 201.0
1.27000, 199.0
1.28000, 178.0
1.29000, 185.0
1.30000, 202.0
1.31000, 208.0
1.32000, 212.0
1.33000, 191.0
1.34000, 201.0
1.35000, 208.0
1.36000, 191.0
1.37000, 189.0
1.38000, 208.0
1.39000, 192.0
1.40000, 190.0
1.41000, 218.0
1.42000, 202.0
1.43000, 185.0
1.44000, 184.0
1.45000, 195.0
1.46000, 204.0
1.47000, 238.0
1.48000, 210.0
1.49000, 251.0
1.50000, 222.0
1.51000, 237.0
1.52000, 221.0
1.53000, 235.0
1.54000, 242.0
1.55000, 236.0
1.56000, 214.0
1.57000, 227.0
1.58000, 244.0
1.59000, 242.0
1.60000, 270.0
1.61000, 282.0
1.62000, 382.0
1.63000, 482.0
1.64000, 768.0
1.65000, 1253.0
1.66000, 1928.0
1.67000, 3077.0
1.68000, 4367.0
1.69000, 6366.0
1.70000, 8396.0
1.71000, 10530.0
1.72000, 12483.0
1.73000, 14093.0
1.74000, 14679.0
1.75000, 14325.0
1.76000, 13441.0
1.77000, 11798.0
1.78000, 9632.0
1.79000, 7525.0
1.80000, 5687.0
1.81000, 3949.0
1.82000, 2915.0
1.83000, 1969.0
1.84000, 1385.0
1.85000, 1035.0
1.86000, 798.0
1.87000, 608.0
1.88000, 447.0
1.89000, 359.0
1.90000, 278.0
1.91000, 219.0
1.92000, 167.0
1.93000, 143.0
1.94000, 96.0
1.95000, 105.0
1.96000, 98.0
1.97000, 92.0
1.98000, 92.0
1.99000, 76.0
2.00000, 89.0
2.01000, 91.0
2.02000, 89.0
2.03000, 99.0
2.04000, 96.0
2.05000, 85.0
2.06000, 98.0
2.07000, 92.0
2.08000, 90.0
2.09000, 86.0
2.10000, 87.0
2.11000, 84.0
2.12000, 86.0
2.13000, 86.0
2.14000, 97.0
2.15000, 75.0
2.16000, 84.0
2.17000, 79.0
2.18000, 74.0
2.19000, 99.0
2.20000, 108.0
2.21000, 104.0
2.22000, 116.0
2.23000, 106.0
2.24000, 117.0
2.25000, 128.0
2.26000, 137.0
2.27000, 170.0
2.28000, 137.0
2.29000, 167.0
2.30000, 150.0
2.31000, 162.0
2.32000, 141.0
2.33000, 131.0
2.34000, 138.0
2.35000, 119.0
2.36000, 121.0
2.37000, 121.0
2.38000, 116.0
2.39000, 111.0
2.40000, 100.0
2.41000, 113.0
2.42000, 89.0
2.43000, 86.0
2.44000, 99.0
2.45000, 92.0
2.46000, 77.0
2.47000, 97.0
2.48000, 84.0
2.49000, 78.0
2.50000, 71.0
2.51000, 88.0
2.52000, 83.0
2.53000, 100.0
2.54000, 71.0
2.55000, 81.0
2.56000, 81.0
2.57000, 76.0
2.58000, 80.0
2.59000, 62.0
2.60000, 73.0
2.61000, 79.0
2.62000, 75.0
2.63000, 71.0
2.64000, 62.0
2.65000, 67.0
2.66000, 67.0
2.67000, 68.0
2.68000, 69.0
2.69000, 78.0
2.70000, 76.0
2.71000, 74.0
2.72000, 89.0
2.73000, 61.0
2.74000, 87.0
2.75000, 91.0
2.76000, 64.0
2.77000, 76.0
2.78000, 67.0
2.79000, 82.0
2.80000, 66.0
2.81000, 63.0
2.82000, 72.0
2.83000, 59.0
2.84000, 65.0
2.85000, 64.0
2.86000, 61.0
2.87000, 60.0
2.88000, 66.0
2.89000, 63.0
2.90000, 67.0
2.91000, 59.0
2.92000, 73.0
2.93000, 68.0
2.94000, 68.0
2.95000, 77.0
2.96000, 73.0
2.97000, 75.0
2.98000, 63.0
2.99000, 53.0
3.00000, 61.0
3.01000, 68.0
3.02000, 76.0
3.03000, 67.0
3.04000, 65.0
3.05000, 68.0
3.06000, 69.0
3.07000, 61.0
3.08000, 69.0
3.09000, 56.0
3.10000, 67.0
3.11000, 53.0
3.12000, 61.0
3.13000, 71.0
3.14000, 74.0
3.15000, 77.0
3.16000, 58.0
3.17000, 61.0
3.18000, 64.0
3.19000, 55.0
3.20000, 67.0
3.21000, 55.0
3.22000, 65.0
3.23000, 54.0
3.24000, 68.0
3.25000, 62.0
3.26000, 80.0
3.27000, 60.0
3.28000, 57.0
3.29000, 55.0
3.30000, 54.0
3.31000, 64.0
3.32000, 52.0
3.33000, 63.0
3.34000, 58.0
3.35000, 66.0
3.36000, 50.0
3.37000, 58.0
3.38000, 52.0
3.39000, 48.0
3.40000, 65.0
3.41000, 66.0
3.42000, 62.0
3.43000, 75.0
3.44000, 78.0
3.45000, 78.0
3.46000, 72.0
3.47000, 80.0
3.48000, 83.0
3.49000, 67.0
3.50000, 69.0
3.51000, 78.0
3.52000, 63.0
3.53000, 65.0
3.54000, 64.0
3.55000, 72.0
3.56000, 68.0
3.57000, 58.0
3.58000, 65.0
3.59000, 58.0
3.60000, 51.0
3.61000, 55.0
3.62000, 63.0
3.63000, 60.0
3.64000, 45.0
3.65000, 47.0
3.66000, 48.0
3.67000, 46.0
3.68000, 48.0
3.69000, 47.0
3.70000, 70.0
3.71000, 54.0
3.72000, 50.0
3.73000, 45.0
3.74000, 38.0
3.75000, 59.0
3.76000, 39.0
3.77000, 49.0
3.78000, 45.0
3.79000, 39.0
3.80000, 45.0
3.81000, 43.0
3.82000, 49.0
3.83000, 46.0
3.84000, 46.0
3.85000, 43.0
3.86000, 37.0
3.87000, 37.0
3.88000, 43.0
3.89000, 54.0
3.90000, 53.0
3.91000, 41.0
3.92000, 41.0
3.93000, 38.0
3.94000, 49.0
3.95000, 48.0
3.96000, 34.0
3.97000, 40.0
3.98000, 35.0
3.99000, 37.0
4.00000, 50.0
4.01000, 43.0
4.02000, 47.0
4.03000, 44.0
4.04000, 42.0
4.05000, 43.0
4.06000, 32.0
4.07000, 50.0
4.08000, 51.0
4.09000, 53.0
4.10000, 41.0
4.11000, 34.0
4.12000, 50.0
4.13000, 42.0
4.14000, 48.0
4.15000, 43.0
4.16000, 37.0
4.17000, 51.0
4.18000, 47.0
4.19000, 37.0
4.20000, 31.0
4.21000, 38.0
4.22000, 50.0
4.23000, 42.0
4.24000, 39.0
4.25000, 44.0
4.26000, 48.0
4.27000, 32.0
4.28000, 39.0
4.29000, 34.0
4.30000, 28.0
4.31000, 33.0
4.32000, 43.0
4.33000, 39.0
4.34000, 26.0
4.35000, 36.0
4.36000, 31.0
4.37000, 35.0
4.38000, 36.0
4.39000, 36.0
4.40000, 46.0
4.41000, 35.0
4.42000, 29.0
4.43000, 38.0
4.44000, 31.0
4.45000, 40.0
4.46000, 39.0
4.47000, 37.0
4.48000, 41.0
4.49000, 40.0
4.50000, 40.0
4.51000, 34.0
4.52000, 38.0
4.53000, 26.0
4.54000, 39.0
4.55000, 33.0
4.56000, 42.0
4.57000, 26.0
4.58000, 34.0
4.59000, 33.0
4.60000, 32.0
4.61000, 39.0
4.62000, 26.0
4.63000, 28.0
4.64000, 35.0
4.65000, 33.0
4.66000, 30.0
4.67000, 23.0
4.68000, 35.0
4.69000, 28.0
4.70000, 38.0
4.71000, 26.0
4.72000, 36.0
4.73000, 30.0
4.74000, 30.0
4.75000, 26.0
4.76000, 39.0
4.77000, 25.0
4.78000, 40.0
4.79000, 30.0
4.80000, 25.0
4.81000, 25.0
4.82000, 37.0
4.83000, 31.0
4.84000, 27.0
4.85000, 34.0
4.86000, 22.0
4.87000, 33.0
4.88000, 31.0
4.89000, 31.0
4.90000, 25.0
4.91000, 26.0
4.92000, 30.0
4.93000, 32.0
4.94000, 24.0
4.95000, 34.0
4.96000, 23.0
4.97000, 28.0
4.98000, 35.0
4.99000, 28.0
5.00000, 27.0
5.01000, 25.0
5.02000, 18.0
5.03000, 22.0
5.04000, 20.0
5.05000, 29.0
5.06000, 33.0
5.07000, 28.0
5.08000, 26.0
5.09000, 26.0
5.10000, 30.0
5.11000, 23.0
5.12000, 18.0
5.13000, 34.0
5.14000, 28.0
5.15000, 29.0
5.16000, 34.0
5.17000, 30.0
5.18000, 36.0
5.19000, 23.0
5.20000, 21.0
5.21000, 22.0
5.22000, 30.0
5.23000, 20.0
5.24000, 24.0
5.25000, 27.0
5.26000, 33.0
5.27000, 17.0
5.28000, 27.0
5.29000, 31.0
5.30000, 26.0
5.31000, 27.0
5.32000, 25.0
5.33000, 21.0
5.34000, 26.0
5.35000, 26.0
5.36000, 26.0
5.37000, 25.0
5.38000, 27.0
5.39000, 29.0
5.40000, 23.0
5.41000, 23.0
5.42000, 27.0
5.43000, 27.0
5.44000, 32.0
5.45000, 18.0
5.46000, 22.0
5.47000, 20.0
5.48000, 17.0
5.49000, 21.0
5.50000, 25.0
5.51000, 22.0
5.52000, 24.0
5.53000, 17.0
5.54000, 26.0
5.55000, 26.0
5.56000, 14.0
5.57000, 24.0
5.58000, 24.0
5.59000, 24.0
5.60000, 20.0
5.61000, 19.0
5.62000, 20.0
5.63000, 19.0
5.64000, 28.0
5.65000, 23.0
5.66000, 23.0
5.67000, 22.0
5.68000, 22.0
5.69000, 25.0
5.70000, 18.0
5.71000, 16.0
5.72000, 13.0
5.73000, 25.0
5.74000, 12.0
5.75000, 25.0
5.76000, 23.0
5.77000, 18.0
5.78000, 15.0
5.79000, 24.0
5.80000, 20.0
5.81000, 26.0
5.82000, 29.0
5.83000, 13.0
5.84000, 18.0
5.85000, 11.0
5.86000, 18.0
5.87000, 17.0
5.88000, 14.0
5.89000, 14.0
5.90000, 21.0
5.91000, 16.0
5.92000, 17.0
5.93000, 18.0
5.94000, 22.0
5.95000, 15.0
5.96000, 20.0
5.97000, 24.0
5.98000, 15.0
5.99000, 14.0
6.00000, 18.0
6.01000, 18.0
6.02000, 20.0
6.03000, 18.0
6.04000, 15.0
6.05000, 19.0
6.06000, 18.0
6.07000, 24.0
6.08000, 18.0
6.09000, 22.0
6.10000, 17.0
6.11000, 11.0
6.12000, 23.0
6.13000, 14.0
6.14000, 21.0
6.15000, 23.0
6.16000, 13.0
6.17000, 26.0
6.18000, 18.0
6.19000, 23.0
6.20000, 13.0
6.21000, 24.0
6.22000, 13.0
6.23000, 17.0
6.24000, 13.0
6.25000, 15.0
6.26000, 12.0
6.27000, 19.0
6.28000, 20.0
6.29000, 23.0
6.30000, 19.0
6.31000, 12.0
6.32000, 19.0
6.33000, 22.0
6.34000, 18.0
6.35000, 17.0
6.36000, 16.0
6.37000, 18.0
6.38000, 18.0
6.39000, 13.0
6.40000, 9.0
6.41000, 12.0
6.42000, 22.0
6.43000, 20.0
6.44000, 13.0
6.45000, 21.0
6.46000, 22.0
6.47000, 9.0
6.48000, 7.0
6.49000, 14.0
6.50000, 13.0
6.51000, 10.0
6.52000, 9.0
6.53000, 11.0
6.54000, 12.0
6.55000, 12.0
6.56000, 23.0
6.57000, 11.0
6.58000, 14.0
6.59000, 15.0
6.60000, 15.0
6.61000, 16.0
6.62000, 9.0
6.63000, 19.0
6.64000, 14.0
6.65000, 12.0
6.66000, 10.0
6.67000, 18.0
6.68000, 21.0
6.69000, 14.0
6.70000, 15.0
6.71000, 11.0
6.72000, 13.0
6.73000, 14.0
6.74000, 17.0
6.75000, 14.0
6.76000, 13.0
6.77000, 10.0
6.78000, 20.0
6.79000, 9.0
6.80000, 10.0
6.81000, 9.0
6.82000, 19.0
6.83000, 16.0
6.84000, 14.0
6.85000, 10.0
6.86000, 12.0
6.87000, 16.0
6.88000, 13.0
6.89000, 11.0
6.90000, 15.0
6.91000, 9.0
6.92000, 12.0
6.93000, 7.0
6.94000, 16.0
6.95000, 10.0
6.96000, 13.0
6.97000, 12.0
6.98000, 14.0
6.99000, 11.0
7.00000, 8.0
7.01000, 15.0
7.02000, 11.0
7.03000, 11.0
7.04000, 15.0
7.05000, 14.0
7.06000, 10.0
7.07000, 9.0
7.08000, 12.0
7.09000, 18.0
7.10000, 9.0
7.11000, 7.0
7.12000, 12.0
7.13000, 13.0
7.14000, 9.0
7.15000, 12.0
7.16000, 13.0
7.17000, 9.0
7.18000, 6.0
7.19000, 7.0
7.20000, 13.0
7.21000, 9.0
7.22000, 12.0
7.23000, 10.0
7.24000, 12.0
7.25000, 10.0
7.26000, 5.0
7.27000, 13.0
7.28000, 9.0
7.29000, 9.0
7.30000, 10.0
7.31000, 10.0
7.32000, 7.0
7.33000, 3.0
7.34000, 12.0
7.35000, 6.0
7.36000, 8.0
7.37000, 6.0
7.38000, 10.0
7.39000, 7.0
7.40000, 7.0
7.41000, 6.0
7.42000, 8.0
7.43000, 10.0
7.44000, 10.0
7.45000, 12.0
7.46000, 10.0
7.47000, 10.0
7.48000, 8.0
7.49000, 1.0
7.50000, 5.0
7.51000, 11.0
7.52000, 6.0
7.53000, 12.0
7.54000, 9.0
7.55000, 9.0
7.56000, 8.0
7.57000, 5.0
7.58000, 7.0
7.59000, 10.0
7.60000, 9.0
7.61000, 8.0
7.62000, 10.0
7.63000, 3.0
7.64000, 12.0
7.65000, 12.0
7.66000, 6.0
7.67000, 14.0
7.68000, 7.0
7.69000, 5.0
7.70000, 5.0
7.71000, 8.0
7.72000, 12.0
7.73000, 8.0
7.74000, 4.0
7.75000, 1.0
7.76000, 5.0
7.77000, 8.0
7.78000, 10.0
7.79000, 8.0
7.80000, 12.0
7.81000, 3.0
7.82000, 10.0
7.83000, 4.0
7.84000, 3.0
7.85000, 7.0
7.86000, 8.0
7.87000, 9.0
7.88000, 7.0
7.89000, 5.0
7.90000, 7.0
7.91000, 6.0
7.92000, 6.0
7.93000, 5.0
7.94000, 6.0
7.95000, 5.0
7.96000, 8.0
7.97000, 5.0
7.98000, 5.0
7.99000, 6.0
8.00000, 6.0
8.01000, 9.0
8.02000, 11.0
8.03000, 7.0
8.04000, 6.0
8.05000, 5.0
8.06000, 5.0
8.07000, 3.0
8.08000, 4.0
8.09000, 9.0
8.10000, 0.0
8.11000, 0.0
8.12000, 3.0
8.13000, 4.0
8.14000, 3.0
8.15000, 5.0
8.16000, 6.0
8.17000, 4.0
8.18000, 6.0
8.19000, 9.0
8.20000, 11.0
8.21000, 7.0
8.22000, 4.0
8.23000, 7.0
8.24000, 3.0
8.25000, 6.0
8.26000, 7.0
8.27000, 4.0
8.28000, 5.0
8.29000, 5.0
8.30000, 4.0
8.31000, 10.0
8.32000, 6.0
8.33000, 6.0
8.34000, 5.0
8.35000, 4.0
8.36000, 3.0
8.37000, 7.0
8.38000, 4.0
8.39000, 7.0
8.40000, 5.0
8.41000, 6.0
8.42000, 1.0
8.43000, 9.0
8.44000, 5.0
8.45000, 5.0
8.46000, 2.0
8.47000, 4.0
8.48000, 5.0
8.49000, 4.0
8.50000, 5.0
8.51000, 5.0
8.52000, 1.0
8.53000, 6.0
8.54000, 6.0
8.55000, 3.0
8.56000, 4.0
8.57000, 1.0
8.58000, 4.0
8.59000, 7.0
8.60000, 3.0
8.61000, 3.0
8.62000, 4.0
8.63000, 4.0
8.64000, 3.0
8.65000, 4.0
8.66000, 4.0
8.67000, 6.0
8.68000, 3.0
8.69000, 4.0
8.70000, 6.0
8.71000, 2.0
8.72000, 8.0
8.73000, 2.0
8.74000, 3.0
8.75000, 1.0
8.76000, 8.0
8.77000, 3.0
8.78000, 2.0
8.79000, 1.0
8.80000, 2.0
8.81000, 3.0
8.82000, 3.0
8.83000, 1.0
8.84000, 5.0
8.85000, 4.0
8.86000, 1.0
8.87000, 4.0
8.88000, 2.0
8.89000, 1.0
8.90000, 2.0
8.91000, 5.0
8.92000, 3.0
8.93000, 0.0
8.94000, 4.0
8.95000, 2.0
8.96000, 1.0
8.97000, 6.0
8.98000, 2.0
8.99000, 2.0
9.00000, 2.0
9.01000, 3.0
9.02000, 5.0
9.03000, 3.0
9.04000, 1.0
9.05000, 5.0
9.06000, 3.0
9.07000, 0.0
9.08000, 3.0
9.09000, 2.0
9.10000, 3.0
9.11000, 1.0
9.12000, 4.0
9.13000, 0.0
9.14000, 2.0
9.15000, 1.0
9.16000, 3.0
9.17000, 4.0
9.18000, 4.0
9.19000, 2.0
9.20000, 2.0
9.21000, 2.0
9.22000, 1.0
9.23000, 0.0
9.24000, 1.0
9.25000, 2.0
9.26000, 3.0
9.27000, 3.0
9.28000, 2.0
9.29000, 0.0
9.30000, 1.0
9.31000, 2.0
9.32000, 2.0
9.33000, 5.0
9.34000, 1.0
9.35000, 2.0
9.36000, 2.0
9.37000, 1.0
9.38000, 0.0
9.39000, 1.0
9.40000, 2.0
9.41000, 2.0
9.42000, 0.0
9.43000, 1.0
9.44000, 3.0
9.45000, 1.0
9.46000, 1.0
9.47000, 2.0
9.48000, 2.0
9.49000, 3.0
9.50000, 0.0
9.51000, 1.0
9.52000, 1.0
9.53000, 0.0
9.54000, 3.0
9.55000, 0.0
9.56000, 1.0
9.57000, 1.0
9.58000, 4.0
9.59000, 1.0
9.60000, 1.0
9.61000, 0.0
9.62000, 1.0
9.63000, 3.0
9.64000, 1.0
9.65000, 2.0
9.66000, 1.0
9.67000, 0.0
9.68000, 1.0
9.69000, 0.0
9.70000, 2.0
9.71000, 0.0
9.72000, 0.0
9.73000, 1.0
9.74000, 0.0
9.75000, 1.0
9.76000, 1.0
9.77000, 0.0
9.78000, 0.0
9.79000, 0.0
9.80000, 0.0
9.81000, 0.0
9.82000, 2.0
9.83000, 0.0
9.84000, 0.0
9.85000, 2.0
9.86000, 0.0
9.87000, 0.0
9.88000, 0.0
9.89000, 0.0
9.90000, 0.0
9.91000, 0.0
9.92000, 1.0
9.93000, 0.0
9.94000, 1.0
9.95000, 1.0
9.96000, 0.0
9.97000, 0.0
9.98000, 0.0
9.99000, 0.0
10.00000, 0.0
10.01000, 0.0
10.02000, 0.0
10.03000, 0.0
10.04000, 0.0
10.05000, 0.0
10.06000, 0.0
10.07000, 0.0
10.08000, 0.0
10.09000, 0.0
10.10000, 0.0
10.11000, 0.0
10.12000, 0.0
10.13000, 0.0
10.13500, 0.0
#ENDOFDATA   :