File: Spectras 20250424/20250425_10K_H12_2.txt
#FORMAT      : EMSA/MAS Spectral Data File
#VERSION     : 1.0
#TITLE       : 20250425_10K_H12_2
#DATE        : 24-APR-2025
#TIME        : 09:35
#OWNER       :
#NPOINTS     : 2048.0
#NCOLUMNS    : 1.0
#XUNITS      : keV
#YUNITS      : counts
#DATATYPE    : XY
#XPERCHAN    : 0.005
#OFFSET      : -0.1
#SIGNALTYPE  : EDS
#CHOFFSET    : 20.0
#LIVETIME    : 60.0
#REALTIME    : 61.4762
#BEAMKV      : 10.0
#MAGCAM      : 4000.0
#XTILTSTGE   : 0.0
#AZIMANGLE   : 0.0
#ELEVANGLE   : 29.0
#XPOSITION mm: 0.7570
#YPOSITION mm: 0.1853
#ZPOSITION mm: 13.4437
##OXINSTPT   : 2
##OXINSTSTROB: 67.48
##OXINSTELEMS: 42,16,14,8
##OXINSTLABEL: 42, 2.293, Mo
##OXINSTLABEL: 42, 2.395, Mo
##OXINSTLABEL: 42, 2.120, Mo
##OXINSTLABEL: 42, 2.831, Mo
##OXINSTLABEL: 42, 2.016, Mo
##OXINSTLABEL: 42, 0.193, Mo
##OXINSTLABEL: 16, 2.308, S
##OXINSTLABEL: 16, 2.464, S
##OXINSTLABEL: 14, 1.740, Si
##OXINSTLABEL: 8, 0.525, O
#SPECTRUM    : Spectral Data Starts Here
-0.10000, 0.0
-0.09000, 0.0
-0.08000, 0.0
-0.07000, 1.0
-0.06000, 4.0
-0.05000, 15.0
-0.04000, 30.0
-0.03000, 74.0
-0.02000, 125.0
-0.01000, 245.0
0.00000, 392.0
0.01000, 581.0
0.02000, 784.0
0.03000, 961.0
0.04000, 1057.0
0.05000, 1131.0
0.06000, 1000.0
0.07000, 861.0
0.08000, 704.0
0.09000, 501.0
0.10000, 356.0
0.11000, 311.0
0.12000, 275.0
0.13000, 306.0
0.14000, 367.0
0.15000, 365.0
0.16000, 382.0
0.17000, 387.0
0.18000, 369.0
0.19000, 355.0
0.20000, 299.0
0.21000, 307.0
0.22000, 288.0
0.23000, 298.0
0.24000, 325.0
0.25000, 399.0
0.26000, 439.0
0.27000, 451.0
0.28000, 412.0
0.29000, 402.0
0.30000, 358.0
0.31000, 280.0
0.32000, 187.0
0.33000, 153.0
0.34000, 105.0
0.35000, 94.0
0.36000, 100.0
0.37000, 97.0
0.38000, 87.0
0.39000, 102.0
0.40000, 89.0
0.41000, 99.0
0.42000, 115.0
0.43000, 110.0
0.44000, 162.0
0.45000, 217.0
0.46000, 325.0
0.47000, 471.0
0.48000, 667.0
0.49000, 857.0
0.50000, 1034.0
0.51000, 1243.0
0.52000, 1317.0
0.53000, 1345.0
0.54000, 1222.0
0.55000, 981.0
0.56000, 787.0
0.57000, 574.0
0.58000, 387.0
0.59000, 298.0
0.60000, 207.0
0.61000, 162.0
0.62000, 155.0
0.63000, 140.0
0.64000, 125.0
0.65000, 127.0
0.66000, 115.0
0.67000, 115.0
0.68000, 138.0
0.69000, 135.0
0.70000, 139.0
0.71000, 140.0
0.72000, 137.0
0.73000, 150.0
0.74000, 147.0
0.75000, 152.0
0.76000, 159.0
0.77000, 163.0
0.78000, 168.0
0.79000, 168.0
0.80000, 170.0
0.81000, 161.0
0.82000, 200.0
0.83000, 178.0
0.84000, 148.0
0.85000, 163.0
0.86000, 193.0
0.87000, 178.0
0.88000, 184.0
0.89000, 183.0
0.90000, 178.0
0.91000, 183.0
0.92000, 202.0
0.93000, 212.0
0.94000, 179.0
0.95000, 178.0
0.96000, 209.0
0.97000, 199.0
0.98000, 196.0
0.99000, 185.0
1.00000, 199.0
1.01000, 210.0
1.02000, 208.0
1.03000, 184.0
1.04000, 219.0
1.05000, 210.0
1.06000, 184.0
1.07000, 187.0
1.08000, 186.0
1.09000, 198.0
1.10000, 230.0
1.11000, 183.0
1.12000, 186.0
1.13000, 193.0
1.14000, 206.0
1.15000, 185.0
1.16000, 202.0
1.17000, 198.0
1.18000, 195.0
1.19000, 221.0
1.20000, 209.0
1.21000, 199.0
1.22000, 192.0
1.23000, 192.0
1.24000, 202.0
1.25000, 199.0
1.26000, 173.0
1.27000, 191.0
1.28000, 210.0
1.29000, 216.0
1.30000, 200.0
1.31000, 191.0
1.32000, 187.0
1.33000, 207.0
1.34000, 201.0
1.35000, 200.0
1.36000, 214.0
1.37000, 202.0
1.38000, 198.0
1.39000, 188.0
1.40000, 197.0
1.41000, 187.0
1.42000, 197.0
1.43000, 213.0
1.44000, 206.0
1.45000, 221.0
1.46000, 205.0
1.47000, 206.0
1.48000, 199.0
1.49000, 234.0
1.50000, 212.0
1.51000, 222.0
1.52000, 225.0
1.53000, 232.0
1.54000, 214.0
1.55000, 191.0
1.56000, 227.0
1.57000, 210.0
1.58000, 194.0
1.59000, 218.0
1.60000, 203.0
1.61000, 234.0
1.62000, 278.0
1.63000, 342.0
1.64000, 443.0
1.65000, 739.0
1.66000, 1148.0
1.67000, 1712.0
1.68000, 2536.0
1.69000, 3589.0
1.70000, 4752.0
1.71000, 5888.0
1.72000, 6987.0
1.73000, 7822.0
1.74000, 8373.0
1.75000, 8106.0
1.76000, 7451.0
1.77000, 6546.0
1.78000, 5371.0
1.79000, 4260.0
1.80000, 3226.0
1.81000, 2346.0
1.82000, 1671.0
1.83000, 1193.0
1.84000, 849.0
1.85000, 688.0
1.86000, 510.0
1.87000, 413.0
1.88000, 339.0
1.89000, 253.0
1.90000, 202.0
1.91000, 203.0
1.92000, 165.0
1.93000, 127.0
1.94000, 150.0
1.95000, 143.0
1.96000, 125.0
1.97000, 132.0
1.98000, 155.0
1.99000, 151.0
2.00000, 175.0
2.01000, 160.0
2.02000, 147.0
2.03000, 152.0
2.04000, 139.0
2.05000, 156.0
2.06000, 166.0
2.07000, 123.0
2.08000, 124.0
2.09000, 137.0
2.10000, 129.0
2.11000, 130.0
2.12000, 130.0
2.13000, 128.0
2.14000, 130.0
2.15000, 130.0
2.16000, 120.0
2.17000, 127.0
2.18000, 161.0
2.19000, 230.0
2.20000, 266.0
2.21000, 353.0
2.22000, 439.0
2.23000, 645.0
2.24000, 831.0
2.25000, 1154.0
2.26000, 1437.0
2.27000, 1753.0
2.28000, 2074.0
2.29000, 2316.0
2.30000, 2440.0
2.31000, 2487.0
2.32000, 2387.0
2.33000, 2237.0
2.34000, 1921.0
2.35000, 1788.0
2.36000, 1447.0
2.37000, 1205.0
2.38000, 1053.0
2.39000, 918.0
2.40000, 751.0
2.41000, 663.0
2.42000, 586.0
2.43000, 522.0
2.44000, 482.0
2.45000, 429.0
2.46000, 408.0
2.47000, 354.0
2.48000, 346.0
2.49000, 323.0
2.50000, 261.0
2.51000, 244.0
2.52000, 221.0
2.53000, 201.0
2.54000, 176.0
2.55000, 141.0
2.56000, 137.0
2.57000, 132.0
2.58000, 126.0
2.59000, 117.0
2.60000, 93.0
2.61000, 105.0
2.62000, 95.0
2.63000, 90.0
2.64000, 93.0
2.65000, 83.0
2.66000, 71.0
2.67000, 84.0
2.68000, 84.0
2.69000, 88.0
2.70000, 68.0
2.71000, 69.0
2.72000, 86.0
2.73000, 80.0
2.74000, 82.0
2.75000, 80.0
2.76000, 80.0
2.77000, 80.0
2.78000, 89.0
2.79000, 73.0
2.80000, 85.0
2.81000, 88.0
2.82000, 72.0
2.83000, 74.0
2.84000, 87.0
2.85000, 84.0
2.86000, 74.0
2.87000, 82.0
2.88000, 95.0
2.89000, 72.0
2.90000, 75.0
2.91000, 56.0
2.92000, 65.0
2.93000, 57.0
2.94000, 70.0
2.95000, 79.0
2.96000, 64.0
2.97000, 63.0
2.98000, 61.0
2.99000, 69.0
3.00000, 74.0
3.01000, 71.0
3.02000, 65.0
3.03000, 78.0
3.04000, 70.0
3.05000, 54.0
3.06000, 61.0
3.07000, 63.0
3.08000, 70.0
3.09000, 54.0
3.10000, 79.0
3.11000, 80.0
3.12000, 81.0
3.13000, 65.0
3.14000, 61.0
3.15000, 57.0
3.16000, 66.0
3.17000, 69.0
3.18000, 58.0
3.19000, 61.0
3.20000, 72.0
3.21000, 55.0
3.22000, 54.0
3.23000, 62.0
3.24000, 64.0
3.25000, 60.0
3.26000, 58.0
3.27000, 55.0
3.28000, 52.0
3.29000, 64.0
3.30000, 64.0
3.31000, 59.0
3.32000, 60.0
3.33000, 61.0
3.34000, 71.0
3.35000, 54.0
3.36000, 55.0
3.37000, 61.0
3.38000, 66.0
3.39000, 58.0
3.40000, 57.0
3.41000, 56.0
3.42000, 60.0
3.43000, 78.0
3.44000, 73.0
3.45000, 60.0
3.46000, 68.0
3.47000, 63.0
3.48000, 64.0
3.49000, 69.0
3.50000, 69.0
3.51000, 70.0
3.52000, 63.0
3.53000, 61.0
3.54000, 65.0
3.55000, 53.0
3.56000, 54.0
3.57000, 59.0
3.58000, 60.0
3.59000, 54.0
3.60000, 53.0
3.61000, 64.0
3.62000, 64.0
3.63000, 51.0
3.64000, 55.0
3.65000, 55.0
3.66000, 53.0
3.67000, 44.0
3.68000, 47.0
3.69000, 46.0
3.70000, 44.0
3.71000, 54.0
3.72000, 47.0
3.73000, 47.0
3.74000, 51.0
3.75000, 45.0
3.76000, 44.0
3.77000, 48.0
3.78000, 48.0
3.79000, 56.0
3.80000, 52.0
3.81000, 64.0
3.82000, 52.0
3.83000, 55.0
3.84000, 52.0
3.85000, 49.0
3.86000, 46.0
3.87000, 50.0
3.88000, 44.0
3.89000, 47.0
3.90000, 43.0
3.91000, 59.0
3.92000, 47.0
3.93000, 45.0
3.94000, 49.0
3.95000, 41.0
3.96000, 50.0
3.97000, 65.0
3.98000, 48.0
3.99000, 50.0
4.00000, 54.0
4.01000, 60.0
4.02000, 64.0
4.03000, 43.0
4.04000, 49.0
4.05000, 48.0
4.06000, 68.0
4.07000, 58.0
4.08000, 59.0
4.09000, 47.0
4.10000, 46.0
4.11000, 46.0
4.12000, 44.0
4.13000, 47.0
4.14000, 41.0
4.15000, 50.0
4.16000, 63.0
4.17000, 36.0
4.18000, 46.0
4.19000, 45.0
4.20000, 38.0
4.21000, 39.0
4.22000, 37.0
4.23000, 45.0
4.24000, 47.0
4.25000, 47.0
4.26000, 42.0
4.27000, 43.0
4.28000, 49.0
4.29000, 59.0
4.30000, 45.0
4.31000, 54.0
4.32000, 44.0
4.33000, 40.0
4.34000, 33.0
4.35000, 44.0
4.36000, 47.0
4.37000, 43.0
4.38000, 47.0
4.39000, 43.0
4.40000, 38.0
4.41000, 39.0
4.42000, 34.0
4.43000, 50.0
4.44000, 36.0
4.45000, 34.0
4.46000, 44.0
4.47000, 46.0
4.48000, 28.0
4.49000, 39.0
4.50000, 42.0
4.51000, 44.0
4.52000, 38.0
4.53000, 40.0
4.54000, 40.0
4.55000, 44.0
4.56000, 42.0
4.57000, 35.0
4.58000, 38.0
4.59000, 39.0
4.60000, 39.0
4.61000, 36.0
4.62000, 33.0
4.63000, 33.0
4.64000, 48.0
4.65000, 35.0
4.66000, 27.0
4.67000, 48.0
4.68000, 33.0
4.69000, 33.0
4.70000, 36.0
4.71000, 41.0
4.72000, 31.0
4.73000, 29.0
4.74000, 25.0
4.75000, 29.0
4.76000, 28.0
4.77000, 33.0
4.78000, 42.0
4.79000, 38.0
4.80000, 37.0
4.81000, 28.0
4.82000, 38.0
4.83000, 25.0
4.84000, 35.0
4.85000, 31.0
4.86000, 31.0
4.87000, 28.0
4.88000, 39.0
4.89000, 42.0
4.90000, 39.0
4.91000, 43.0
4.92000, 35.0
4.93000, 22.0
4.94000, 33.0
4.95000, 31.0
4.96000, 35.0
4.97000, 25.0
4.98000, 31.0
4.99000, 40.0
5.00000, 38.0
5.01000, 27.0
5.02000, 35.0
5.03000, 39.0
5.04000, 27.0
5.05000, 33.0
5.06000, 33.0
5.07000, 33.0
5.08000, 24.0
5.09000, 27.0
5.10000, 24.0
5.11000, 29.0
5.12000, 34.0
5.13000, 33.0
5.14000, 29.0
5.15000, 23.0
5.16000, 31.0
5.17000, 25.0
5.18000, 32.0
5.19000, 35.0
5.20000, 32.0
5.21000, 34.0
5.22000, 31.0
5.23000, 34.0
5.24000, 27.0
5.25000, 28.0
5.26000, 30.0
5.27000, 23.0
5.28000, 24.0
5.29000, 30.0
5.30000, 24.0
5.31000, 41.0
5.32000, 25.0
5.33000, 37.0
5.34000, 26.0
5.35000, 32.0
5.36000, 30.0
5.37000, 30.0
5.38000, 40.0
5.39000, 21.0
5.40000, 22.0
5.41000, 25.0
5.42000, 24.0
5.43000, 31.0
5.44000, 32.0
5.45000, 21.0
5.46000, 29.0
5.47000, 35.0
5.48000, 29.0
5.49000, 23.0
5.50000, 37.0
5.51000, 27.0
5.52000, 28.0
5.53000, 18.0
5.54000, 21.0
5.55000, 34.0
5.56000, 29.0
5.57000, 25.0
5.58000, 29.0
5.59000, 33.0
5.60000, 22.0
5.61000, 22.0
5.62000, 22.0
5.63000, 31.0
5.64000, 12.0
5.65000, 28.0
5.66000, 24.0
5.67000, 26.0
5.68000, 26.0
5.69000, 20.0
5.70000, 20.0
5.71000, 21.0
5.72000, 26.0
5.73000, 33.0
5.74000, 31.0
5.75000, 19.0
5.76000, 13.0
5.77000, 17.0
5.78000, 15.0
5.79000, 21.0
5.80000, 26.0
5.81000, 20.0
5.82000, 18.0
5.83000, 27.0
5.84000, 37.0
5.85000, 25.0
5.86000, 17.0
5.87000, 27.0
5.88000, 25.0
5.89000, 19.0
5.90000, 29.0
5.91000, 28.0
5.92000, 19.0
5.93000, 15.0
5.94000, 15.0
5.95000, 26.0
5.96000, 24.0
5.97000, 26.0
5.98000, 22.0
5.99000, 23.0
6.00000, 18.0
6.01000, 18.0
6.02000, 36.0
6.03000, 13.0
6.04000, 27.0
6.05000, 26.0
6.06000, 22.0
6.07000, 21.0
6.08000, 29.0
6.09000, 14.0
6.10000, 20.0
6.11000, 20.0
6.12000, 22.0
6.13000, 16.0
6.14000, 23.0
6.15000, 27.0
6.16000, 13.0
6.17000, 23.0
6.18000, 17.0
6.19000, 19.0
6.20000, 20.0
6.21000, 17.0
6.22000, 19.0
6.23000, 19.0
6.24000, 23.0
6.25000, 15.0
6.26000, 17.0
6.27000, 21.0
6.28000, 20.0
6.29000, 14.0
6.30000, 17.0
6.31000, 19.0
6.32000, 16.0
6.33000, 17.0
6.34000, 21.0
6.35000, 23.0
6.36000, 21.0
6.37000, 20.0
6.38000, 17.0
6.39000, 17.0
6.40000, 20.0
6.41000, 16.0
6.42000, 19.0
6.43000, 19.0
6.44000, 23.0
6.45000, 15.0
6.46000, 23.0
6.47000, 17.0
6.48000, 16.0
6.49000, 25.0
6.50000, 16.0
6.51000, 16.0
6.52000, 24.0
6.53000, 19.0
6.54000, 17.0
6.55000, 21.0
6.56000, 15.0
6.57000, 23.0
6.58000, 16.0
6.59000, 16.0
6.60000, 18.0
6.61000, 20.0
6.62000, 12.0
6.63000, 13.0
6.64000, 19.0
6.65000, 22.0
6.66000, 21.0
6.67000, 17.0
6.68000, 15.0
6.69000, 15.0
6.70000, 22.0
6.71000, 17.0
6.72000, 24.0
6.73000, 6.0
6.74000, 21.0
6.75000, 10.0
6.76000, 22.0
6.77000, 16.0
6.78000, 13.0
6.79000, 16.0
6.80000, 19.0
6.81000, 11.0
6.82000, 19.0
6.83000, 14.0
6.84000, 10.0
6.85000, 18.0
6.86000, 15.0
6.87000, 25.0
6.88000, 18.0
6.89000, 18.0
6.90000, 11.0
6.91000, 16.0
6.92000, 14.0
6.93000, 15.0
6.94000, 28.0
6.95000, 15.0
6.96000, 11.0
6.97000, 11.0
6.98000, 7.0
6.99000, 14.0
7.00000, 13.0
7.01000, 17.0
7.02000, 20.0
7.03000, 13.0
7.04000, 12.0
7.05000, 16.0
7.06000, 16.0
7.07000, 7.0
7.08000, 10.0
7.09000, 9.0
7.10000, 13.0
7.11000, 24.0
7.12000, 13.0
7.13000, 8.0
7.14000, 11.0
7.15000, 13.0
7.16000, 19.0
7.17000, 12.0
7.18000, 11.0
7.19000, 9.0
7.20000, 19.0
7.21000, 13.0
7.22000, 11.0
7.23000, 9.0
7.24000, 19.0
7.25000, 11.0
7.26000, 14.0
7.27000, 13.0
7.28000, 16.0
7.29000, 14.0
7.30000, 16.0
7.31000, 12.0
7.32000, 9.0
7.33000, 11.0
7.34000, 11.0
7.35000, 11.0
7.36000, 11.0
7.37000, 13.0
7.38000, 9.0
7.39000, 12.0
7.40000, 13.0
7.41000, 17.0
7.42000, 16.0
7.43000, 10.0
7.44000, 9.0
7.45000, 9.0
7.46000, 12.0
7.47000, 13.0
7.48000, 17.0
7.49000, 11.0
7.50000, 10.0
7.51000, 15.0
7.52000, 13.0
7.53000, 7.0
7.54000, 4.0
7.55000, 14.0
7.56000, 12.0
7.57000, 7.0
7.58000, 13.0
7.59000, 12.0
7.60000, 12.0
7.61000, 10.0
7.62000, 12.0
7.63000, 16.0
7.64000, 10.0
7.65000, 13.0
7.66000, 7.0
7.67000, 8.0
7.68000, 12.0
7.69000, 10.0
7.70000, 13.0
7.71000, 11.0
7.72000, 14.0
7.73000, 8.0
7.74000, 14.0
7.75000, 8.0
7.76000, 10.0
7.77000, 7.0
7.78000, 15.0
7.79000, 15.0
7.80000, 7.0
7.81000, 10.0
7.82000, 9.0
7.83000, 5.0
7.84000, 5.0
7.85000, 11.0
7.86000, 12.0
7.87000, 12.0
7.88000, 6.0
7.89000, 5.0
7.90000, 12.0
7.91000, 16.0
7.92000, 6.0
7.93000, 13.0
7.94000, 9.0
7.95000, 9.0
7.96000, 16.0
7.97000, 9.0
7.98000, 13.0
7.99000, 8.0
8.00000, 8.0
8.01000, 5.0
8.02000, 8.0
8.03000, 6.0
8.04000, 6.0
8.05000, 9.0
8.06000, 10.0
8.07000, 14.0
8.08000, 7.0
8.09000, 10.0
8.10000, 9.0
8.11000, 11.0
8.12000, 11.0
8.13000, 6.0
8.14000, 7.0
8.15000, 10.0
8.16000, 3.0
8.17000, 10.0
8.18000, 11.0
8.19000, 12.0
8.20000, 9.0
8.21000, 10.0
8.22000, 13.0
8.23000, 16.0
8.24000, 9.0
8.25000, 10.0
8.26000, 7.0
8.27000, 13.0
8.28000, 14.0
8.29000, 12.0
8.30000, 4.0
8.31000, 5.0
8.32000, 12.0
8.33000, 11.0
8.34000, 13.0
8.35000, 13.0
8.36000, 9.0
8.37000, 4.0
8.38000, 8.0
8.39000, 11.0
8.40000, 7.0
8.41000, 6.0
8.42000, 10.0
8.43000, 6.0
8.44000, 6.0
8.45000, 12.0
8.46000, 9.0
8.47000, 9.0
8.48000, 5.0
8.49000, 5.0
8.50000, 9.0
8.51000, 8.0
8.52000, 6.0
8.53000, 8.0
8.54000, 6.0
8.55000, 11.0
8.56000, 10.0
8.57000, 11.0
8.58000, 5.0
8.59000, 7.0
8.60000, 1.0
8.61000, 7.0
8.62000, 7.0
8.63000, 7.0
8.64000, 11.0
8.65000, 3.0
8.66000, 12.0
8.67000, 7.0
8.68000, 8.0
8.69000, 9.0
8.70000, 7.0
8.71000, 9.0
8.72000, 8.0
8.73000, 5.0
8.74000, 9.0
8.75000, 10.0
8.76000, 4.0
8.77000, 6.0
8.78000, 5.0
8.79000, 14.0
8.80000, 7.0
8.81000, 6.0
8.82000, 6.0
8.83000, 7.0
8.84000, 5.0
8.85000, 6.0
8.86000, 9.0
8.87000, 11.0
8.88000, 8.0
8.89000, 2.0
8.90000, 3.0
8.91000, 8.0
8.92000, 7.0
8.93000, 4.0
8.94000, 7.0
8.95000, 6.0
8.96000, 9.0
8.97000, 1.0
8.98000, 2.0
8.99000, 6.0
9.00000, 8.0
9.01000, 9.0
9.02000, 9.0
9.03000, 11.0
9.04000, 5.0
9.05000, 7.0
9.06000, 3.0
9.07000, 3.0
9.08000, 7.0
9.09000, 9.0
9.10000, 5.0
9.11000, 5.0
9.12000, 5.0
9.13000, 6.0
9.14000, 5.0
9.15000, 2.0
9.16000, 1.0
9.17000, 7.0
9.18000, 4.0
9.19000, 4.0
9.20000, 3.0
9.21000, 5.0
9.22000, 9.0
9.23000, 5.0
9.24000, 3.0
9.25000, 5.0
9.26000, 10.0
9.27000, 4.0
9.28000, 1.0
9.29000, 8.0
9.30000, 4.0
9.31000, 4.0
9.32000, 4.0
9.33000, 5.0
9.34000, 7.0
9.35000, 3.0
9.36000, 4.0
9.37000, 6.0
9.38000, 5.0
9.39000, 3.0
9.40000, 4.0
9.41000, 6.0
9.42000, 6.0
9.43000, 4.0
9.44000, 7.0
9.45000, 6.0
9.46000, 7.0
9.47000, 2.0
9.48000, 4.0
9.49000, 6.0
9.50000, 3.0
9.51000, 6.0
9.52000, 7.0
9.53000, 5.0
9.54000, 5.0
9.55000, 6.0
9.56000, 3.0
9.57000, 4.0
9.58000, 5.0
9.59000, 6.0
9.60000, 3.0
9.61000, 5.0
9.62000, 5.0
9.63000, 2.0
9.64000, 1.0
9.65000, 7.0
9.66000, 3.0
9.67000, 3.0
9.68000, 1.0
9.69000, 3.0
9.70000, 4.0
9.71000, 6.0
9.72000, 3.0
9.73000, 1.0
9.74000, 4.0
9.75000, 3.0
9.76000, 3.0
9.77000, 3.0
9.78000, 2.0
9.79000, 5.0
9.80000, 1.0
9.81000, 3.0
9.82000, 2.0
9.83000, 3.0
9.84000, 5.0
9.85000, 1.0
9.86000, 4.0
9.87000, 3.0
9.88000, 2.0
9.89000, 2.0
9.90000, 4.0
9.91000, 1.0
9.92000, 2.0
9.93000, 4.0
9.94000, 2.0
9.95000, 0.0
9.96000, 1.0
9.97000, 1.0
9.98000, 2.0
9.99000, 3.0
10.00000, 0.0
10.01000, 1.0
10.02000, 0.0
10.03000, 0.0
10.04000, 0.0
10.05000, 0.0
10.06000, 0.0
10.07000, 1.0
10.08000, 0.0
10.09000, 0.0
10.10000, 0.0
10.11000, 0.0
10.12000, 1.0
10.13000, 0.0
10.13500, 0.0
#ENDOFDATA   :