File: Spectras 20250424/20250425_10K_G10_2.txt
#FORMAT      : EMSA/MAS Spectral Data File
#VERSION     : 1.0
#TITLE       : 20250425_10K_G10_2
#DATE        : 24-APR-2025
#TIME        : 09:59
#OWNER       :
#NPOINTS     : 2048.0
#NCOLUMNS    : 1.0
#XUNITS      : keV
#YUNITS      : counts
#DATATYPE    : XY
#XPERCHAN    : 0.005
#OFFSET      : -0.1
#SIGNALTYPE  : EDS
#CHOFFSET    : 20.0
#LIVETIME    : 60.0
#REALTIME    : 61.8849
#BEAMKV      : 10.0
#MAGCAM      : 3300.0
#XTILTSTGE   : 0.0
#AZIMANGLE   : 0.0
#ELEVANGLE   : 29.0
#XPOSITION mm: 0.5138
#YPOSITION mm: -0.6150
#ZPOSITION mm: 13.5353
##OXINSTPT   : 2
##OXINSTSTROB: 67.57
#SPECTRUM    : Spectral Data Starts Here
-0.10000, 0.0
-0.09000, 0.0
-0.08000, 0.0
-0.07000, 0.0
-0.06000, 8.0
-0.05000, 12.0
-0.04000, 28.0
-0.03000, 76.0
-0.02000, 139.0
-0.01000, 260.0
0.00000, 423.0
0.01000, 542.0
0.02000, 758.0
0.03000, 911.0
0.04000, 1014.0
0.05000, 1023.0
0.06000, 985.0
0.07000, 843.0
0.08000, 649.0
0.09000, 433.0
0.10000, 276.0
0.11000, 194.0
0.12000, 144.0
0.13000, 85.0
0.14000, 56.0
0.15000, 61.0
0.16000, 53.0
0.17000, 52.0
0.18000, 50.0
0.19000, 53.0
0.20000, 58.0
0.21000, 71.0
0.22000, 68.0
0.23000, 84.0
0.24000, 94.0
0.25000, 131.0
0.26000, 120.0
0.27000, 124.0
0.28000, 140.0
0.29000, 127.0
0.30000, 113.0
0.31000, 110.0
0.32000, 77.0
0.33000, 76.0
0.34000, 79.0
0.35000, 76.0
0.36000, 81.0
0.37000, 110.0
0.38000, 113.0
0.39000, 127.0
0.40000, 155.0
0.41000, 178.0
0.42000, 234.0
0.43000, 336.0
0.44000, 507.0
0.45000, 861.0
0.46000, 1288.0
0.47000, 2020.0
0.48000, 2895.0
0.49000, 4043.0
0.50000, 5154.0
0.51000, 5901.0
0.52000, 6264.0
0.53000, 5988.0
0.54000, 5371.0
0.55000, 4467.0
0.56000, 3232.0
0.57000, 2234.0
0.58000, 1429.0
0.59000, 814.0
0.60000, 432.0
0.61000, 291.0
0.62000, 157.0
0.63000, 116.0
0.64000, 94.0
0.65000, 92.0
0.66000, 103.0
0.67000, 94.0
0.68000, 129.0
0.69000, 106.0
0.70000, 115.0
0.71000, 109.0
0.72000, 118.0
0.73000, 130.0
0.74000, 123.0
0.75000, 147.0
0.76000, 144.0
0.77000, 143.0
0.78000, 149.0
0.79000, 142.0
0.80000, 150.0
0.81000, 158.0
0.82000, 163.0
0.83000, 155.0
0.84000, 164.0
0.85000, 157.0
0.86000, 164.0
0.87000, 171.0
0.88000, 157.0
0.89000, 171.0
0.90000, 174.0
0.91000, 168.0
0.92000, 175.0
0.93000, 162.0
0.94000, 178.0
0.95000, 194.0
0.96000, 190.0
0.97000, 187.0
0.98000, 178.0
0.99000, 171.0
1.00000, 205.0
1.01000, 211.0
1.02000, 210.0
1.03000, 198.0
1.04000, 201.0
1.05000, 199.0
1.06000, 188.0
1.07000, 200.0
1.08000, 192.0
1.09000, 199.0
1.10000, 191.0
1.11000, 179.0
1.12000, 180.0
1.13000, 180.0
1.14000, 190.0
1.15000, 197.0
1.16000, 197.0
1.17000, 201.0
1.18000, 203.0
1.19000, 168.0
1.20000, 187.0
1.21000, 185.0
1.22000, 188.0
1.23000, 208.0
1.24000, 191.0
1.25000, 206.0
1.26000, 176.0
1.27000, 199.0
1.28000, 190.0
1.29000, 195.0
1.30000, 203.0
1.31000, 205.0
1.32000, 191.0
1.33000, 207.0
1.34000, 213.0
1.35000, 200.0
1.36000, 193.0
1.37000, 205.0
1.38000, 208.0
1.39000, 189.0
1.40000, 207.0
1.41000, 197.0
1.42000, 199.0
1.43000, 186.0
1.44000, 205.0
1.45000, 219.0
1.46000, 217.0
1.47000, 213.0
1.48000, 215.0
1.49000, 216.0
1.50000, 235.0
1.51000, 216.0
1.52000, 250.0
1.53000, 248.0
1.54000, 256.0
1.55000, 266.0
1.56000, 245.0
1.57000, 247.0
1.58000, 231.0
1.59000, 237.0
1.60000, 263.0
1.61000, 306.0
1.62000, 360.0
1.63000, 484.0
1.64000, 736.0
1.65000, 1267.0
1.66000, 1982.0
1.67000, 3048.0
1.68000, 4525.0
1.69000, 6481.0
1.70000, 8629.0
1.71000, 10774.0
1.72000, 12856.0
1.73000, 14321.0
1.74000, 14921.0
1.75000, 14662.0
1.76000, 13647.0
1.77000, 11762.0
1.78000, 9817.0
1.79000, 7690.0
1.80000, 5827.0
1.81000, 4173.0
1.82000, 3020.0
1.83000, 1999.0
1.84000, 1422.0
1.85000, 1063.0
1.86000, 803.0
1.87000, 609.0
1.88000, 470.0
1.89000, 383.0
1.90000, 272.0
1.91000, 208.0
1.92000, 168.0
1.93000, 125.0
1.94000, 122.0
1.95000, 105.0
1.96000, 88.0
1.97000, 90.0
1.98000, 78.0
1.99000, 81.0
2.00000, 97.0
2.01000, 92.0
2.02000, 73.0
2.03000, 100.0
2.04000, 88.0
2.05000, 80.0
2.06000, 94.0
2.07000, 80.0
2.08000, 85.0
2.09000, 84.0
2.10000, 89.0
2.11000, 83.0
2.12000, 71.0
2.13000, 90.0
2.14000, 98.0
2.15000, 85.0
2.16000, 88.0
2.17000, 88.0
2.18000, 91.0
2.19000, 79.0
2.20000, 109.0
2.21000, 95.0
2.22000, 98.0
2.23000, 106.0
2.24000, 109.0
2.25000, 128.0
2.26000, 108.0
2.27000, 109.0
2.28000, 125.0
2.29000, 131.0
2.30000, 120.0
2.31000, 136.0
2.32000, 125.0
2.33000, 124.0
2.34000, 130.0
2.35000, 112.0
2.36000, 109.0
2.37000, 98.0
2.38000, 90.0
2.39000, 86.0
2.40000, 83.0
2.41000, 84.0
2.42000, 72.0
2.43000, 90.0
2.44000, 80.0
2.45000, 71.0
2.46000, 82.0
2.47000, 85.0
2.48000, 75.0
2.49000, 82.0
2.50000, 91.0
2.51000, 80.0
2.52000, 82.0
2.53000, 83.0
2.54000, 85.0
2.55000, 86.0
2.56000, 87.0
2.57000, 85.0
2.58000, 75.0
2.59000, 73.0
2.60000, 66.0
2.61000, 75.0
2.62000, 65.0
2.63000, 79.0
2.64000, 81.0
2.65000, 85.0
2.66000, 75.0
2.67000, 82.0
2.68000, 64.0
2.69000, 74.0
2.70000, 68.0
2.71000, 79.0
2.72000, 70.0
2.73000, 86.0
2.74000, 74.0
2.75000, 75.0
2.76000, 79.0
2.77000, 70.0
2.78000, 65.0
2.79000, 64.0
2.80000, 74.0
2.81000, 77.0
2.82000, 75.0
2.83000, 78.0
2.84000, 81.0
2.85000, 71.0
2.86000, 63.0
2.87000, 84.0
2.88000, 77.0
2.89000, 59.0
2.90000, 61.0
2.91000, 72.0
2.92000, 80.0
2.93000, 66.0
2.94000, 74.0
2.95000, 62.0
2.96000, 77.0
2.97000, 63.0
2.98000, 64.0
2.99000, 64.0
3.00000, 72.0
3.01000, 68.0
3.02000, 78.0
3.03000, 56.0
3.04000, 65.0
3.05000, 51.0
3.06000, 82.0
3.07000, 66.0
3.08000, 63.0
3.09000, 66.0
3.10000, 79.0
3.11000, 68.0
3.12000, 63.0
3.13000, 67.0
3.14000, 63.0
3.15000, 66.0
3.16000, 68.0
3.17000, 56.0
3.18000, 65.0
3.19000, 57.0
3.20000, 54.0
3.21000, 68.0
3.22000, 51.0
3.23000, 67.0
3.24000, 61.0
3.25000, 62.0
3.26000, 55.0
3.27000, 60.0
3.28000, 65.0
3.29000, 72.0
3.30000, 61.0
3.31000, 77.0
3.32000, 56.0
3.33000, 60.0
3.34000, 58.0
3.35000, 56.0
3.36000, 55.0
3.37000, 63.0
3.38000, 61.0
3.39000, 61.0
3.40000, 59.0
3.41000, 57.0
3.42000, 69.0
3.43000, 72.0
3.44000, 78.0
3.45000, 72.0
3.46000, 86.0
3.47000, 95.0
3.48000, 90.0
3.49000, 92.0
3.50000, 88.0
3.51000, 78.0
3.52000, 79.0
3.53000, 78.0
3.54000, 63.0
3.55000, 76.0
3.56000, 62.0
3.57000, 51.0
3.58000, 58.0
3.59000, 60.0
3.60000, 57.0
3.61000, 48.0
3.62000, 52.0
3.63000, 61.0
3.64000, 43.0
3.65000, 52.0
3.66000, 38.0
3.67000, 51.0
3.68000, 44.0
3.69000, 50.0
3.70000, 63.0
3.71000, 57.0
3.72000, 48.0
3.73000, 50.0
3.74000, 59.0
3.75000, 50.0
3.76000, 42.0
3.77000, 35.0
3.78000, 46.0
3.79000, 48.0
3.80000, 50.0
3.81000, 46.0
3.82000, 42.0
3.83000, 48.0
3.84000, 46.0
3.85000, 44.0
3.86000, 54.0
3.87000, 64.0
3.88000, 50.0
3.89000, 40.0
3.90000, 58.0
3.91000, 48.0
3.92000, 48.0
3.93000, 56.0
3.94000, 49.0
3.95000, 47.0
3.96000, 43.0
3.97000, 46.0
3.98000, 38.0
3.99000, 50.0
4.00000, 36.0
4.01000, 51.0
4.02000, 48.0
4.03000, 50.0
4.04000, 52.0
4.05000, 57.0
4.06000, 48.0
4.07000, 38.0
4.08000, 42.0
4.09000, 37.0
4.10000, 35.0
4.11000, 55.0
4.12000, 46.0
4.13000, 41.0
4.14000, 39.0
4.15000, 44.0
4.16000, 48.0
4.17000, 44.0
4.18000, 40.0
4.19000, 37.0
4.20000, 31.0
4.21000, 44.0
4.22000, 45.0
4.23000, 37.0
4.24000, 42.0
4.25000, 52.0
4.26000, 45.0
4.27000, 56.0
4.28000, 26.0
4.29000, 44.0
4.30000, 39.0
4.31000, 38.0
4.32000, 38.0
4.33000, 41.0
4.34000, 38.0
4.35000, 32.0
4.36000, 40.0
4.37000, 35.0
4.38000, 40.0
4.39000, 44.0
4.40000, 31.0
4.41000, 38.0
4.42000, 34.0
4.43000, 42.0
4.44000, 33.0
4.45000, 40.0
4.46000, 41.0
4.47000, 31.0
4.48000, 31.0
4.49000, 36.0
4.50000, 38.0
4.51000, 36.0
4.52000, 33.0
4.53000, 39.0
4.54000, 38.0
4.55000, 46.0
4.56000, 39.0
4.57000, 36.0
4.58000, 33.0
4.59000, 33.0
4.60000, 42.0
4.61000, 28.0
4.62000, 31.0
4.63000, 40.0
4.64000, 29.0
4.65000, 41.0
4.66000, 29.0
4.67000, 27.0
4.68000, 19.0
4.69000, 32.0
4.70000, 34.0
4.71000, 34.0
4.72000, 31.0
4.73000, 37.0
4.74000, 32.0
4.75000, 30.0
4.76000, 38.0
4.77000, 32.0
4.78000, 31.0
4.79000, 39.0
4.80000, 42.0
4.81000, 36.0
4.82000, 41.0
4.83000, 27.0
4.84000, 32.0
4.85000, 34.0
4.86000, 33.0
4.87000, 40.0
4.88000, 34.0
4.89000, 39.0
4.90000, 26.0
4.91000, 36.0
4.92000, 36.0
4.93000, 32.0
4.94000, 39.0
4.95000, 31.0
4.96000, 37.0
4.97000, 29.0
4.98000, 30.0
4.99000, 31.0
5.00000, 31.0
5.01000, 26.0
5.02000, 35.0
5.03000, 29.0
5.04000, 27.0
5.05000, 22.0
5.06000, 34.0
5.07000, 22.0
5.08000, 30.0
5.09000, 30.0
5.10000, 33.0
5.11000, 18.0
5.12000, 29.0
5.13000, 26.0
5.14000, 27.0
5.15000, 31.0
5.16000, 26.0
5.17000, 18.0
5.18000, 34.0
5.19000, 23.0
5.20000, 25.0
5.21000, 24.0
5.22000, 27.0
5.23000, 31.0
5.24000, 24.0
5.25000, 30.0
5.26000, 23.0
5.27000, 20.0
5.28000, 17.0
5.29000, 23.0
5.30000, 21.0
5.31000, 25.0
5.32000, 27.0
5.33000, 22.0
5.34000, 28.0
5.35000, 17.0
5.36000, 28.0
5.37000, 25.0
5.38000, 32.0
5.39000, 29.0
5.40000, 36.0
5.41000, 21.0
5.42000, 21.0
5.43000, 26.0
5.44000, 22.0
5.45000, 23.0
5.46000, 31.0
5.47000, 24.0
5.48000, 26.0
5.49000, 25.0
5.50000, 26.0
5.51000, 31.0
5.52000, 27.0
5.53000, 17.0
5.54000, 17.0
5.55000, 23.0
5.56000, 23.0
5.57000, 19.0
5.58000, 22.0
5.59000, 24.0
5.60000, 30.0
5.61000, 18.0
5.62000, 33.0
5.63000, 15.0
5.64000, 20.0
5.65000, 21.0
5.66000, 28.0
5.67000, 16.0
5.68000, 23.0
5.69000, 21.0
5.70000, 25.0
5.71000, 18.0
5.72000, 23.0
5.73000, 22.0
5.74000, 25.0
5.75000, 25.0
5.76000, 22.0
5.77000, 19.0
5.78000, 18.0
5.79000, 16.0
5.80000, 14.0
5.81000, 30.0
5.82000, 21.0
5.83000, 14.0
5.84000, 21.0
5.85000, 17.0
5.86000, 16.0
5.87000, 21.0
5.88000, 25.0
5.89000, 16.0
5.90000, 14.0
5.91000, 21.0
5.92000, 20.0
5.93000, 20.0
5.94000, 16.0
5.95000, 16.0
5.96000, 6.0
5.97000, 13.0
5.98000, 17.0
5.99000, 21.0
6.00000, 17.0
6.01000, 18.0
6.02000, 15.0
6.03000, 17.0
6.04000, 17.0
6.05000, 22.0
6.06000, 21.0
6.07000, 15.0
6.08000, 19.0
6.09000, 24.0
6.10000, 20.0
6.11000, 18.0
6.12000, 15.0
6.13000, 24.0
6.14000, 22.0
6.15000, 25.0
6.16000, 20.0
6.17000, 16.0
6.18000, 14.0
6.19000, 25.0
6.20000, 16.0
6.21000, 17.0
6.22000, 24.0
6.23000, 17.0
6.24000, 13.0
6.25000, 15.0
6.26000, 20.0
6.27000, 13.0
6.28000, 17.0
6.29000, 27.0
6.30000, 19.0
6.31000, 24.0
6.32000, 12.0
6.33000, 21.0
6.34000, 12.0
6.35000, 20.0
6.36000, 17.0
6.37000, 18.0
6.38000, 12.0
6.39000, 11.0
6.40000, 18.0
6.41000, 14.0
6.42000, 13.0
6.43000, 12.0
6.44000, 20.0
6.45000, 7.0
6.46000, 11.0
6.47000, 11.0
6.48000, 13.0
6.49000, 12.0
6.50000, 20.0
6.51000, 18.0
6.52000, 12.0
6.53000, 12.0
6.54000, 21.0
6.55000, 17.0
6.56000, 12.0
6.57000, 13.0
6.58000, 15.0
6.59000, 15.0
6.60000, 10.0
6.61000, 14.0
6.62000, 14.0
6.63000, 8.0
6.64000, 13.0
6.65000, 11.0
6.66000, 13.0
6.67000, 12.0
6.68000, 9.0
6.69000, 10.0
6.70000, 15.0
6.71000, 22.0
6.72000, 8.0
6.73000, 14.0
6.74000, 11.0
6.75000, 12.0
6.76000, 16.0
6.77000, 13.0
6.78000, 11.0
6.79000, 16.0
6.80000, 14.0
6.81000, 12.0
6.82000, 18.0
6.83000, 12.0
6.84000, 4.0
6.85000, 14.0
6.86000, 18.0
6.87000, 19.0
6.88000, 13.0
6.89000, 12.0
6.90000, 8.0
6.91000, 14.0
6.92000, 13.0
6.93000, 11.0
6.94000, 13.0
6.95000, 6.0
6.96000, 16.0
6.97000, 14.0
6.98000, 11.0
6.99000, 8.0
7.00000, 10.0
7.01000, 14.0
7.02000, 6.0
7.03000, 7.0
7.04000, 11.0
7.05000, 12.0
7.06000, 13.0
7.07000, 7.0
7.08000, 12.0
7.09000, 14.0
7.10000, 7.0
7.11000, 11.0
7.12000, 10.0
7.13000, 13.0
7.14000, 6.0
7.15000, 10.0
7.16000, 7.0
7.17000, 7.0
7.18000, 11.0
7.19000, 12.0
7.20000, 10.0
7.21000, 16.0
7.22000, 10.0
7.23000, 9.0
7.24000, 13.0
7.25000, 8.0
7.26000, 13.0
7.27000, 12.0
7.28000, 7.0
7.29000, 9.0
7.30000, 6.0
7.31000, 7.0
7.32000, 13.0
7.33000, 16.0
7.34000, 16.0
7.35000, 10.0
7.36000, 15.0
7.37000, 12.0
7.38000, 10.0
7.39000, 11.0
7.40000, 13.0
7.41000, 8.0
7.42000, 10.0
7.43000, 9.0
7.44000, 13.0
7.45000, 9.0
7.46000, 10.0
7.47000, 10.0
7.48000, 6.0
7.49000, 7.0
7.50000, 6.0
7.51000, 14.0
7.52000, 6.0
7.53000, 7.0
7.54000, 9.0
7.55000, 5.0
7.56000, 14.0
7.57000, 7.0
7.58000, 5.0
7.59000, 4.0
7.60000, 8.0
7.61000, 8.0
7.62000, 6.0
7.63000, 7.0
7.64000, 17.0
7.65000, 12.0
7.66000, 12.0
7.67000, 9.0
7.68000, 13.0
7.69000, 12.0
7.70000, 11.0
7.71000, 7.0
7.72000, 6.0
7.73000, 5.0
7.74000, 5.0
7.75000, 9.0
7.76000, 6.0
7.77000, 5.0
7.78000, 7.0
7.79000, 4.0
7.80000, 9.0
7.81000, 3.0
7.82000, 6.0
7.83000, 3.0
7.84000, 3.0
7.85000, 3.0
7.86000, 6.0
7.87000, 6.0
7.88000, 7.0
7.89000, 5.0
7.90000, 6.0
7.91000, 8.0
7.92000, 9.0
7.93000, 6.0
7.94000, 2.0
7.95000, 5.0
7.96000, 5.0
7.97000, 8.0
7.98000, 3.0
7.99000, 3.0
8.00000, 8.0
8.01000, 4.0
8.02000, 7.0
8.03000, 7.0
8.04000, 3.0
8.05000, 7.0
8.06000, 5.0
8.07000, 4.0
8.08000, 7.0
8.09000, 4.0
8.10000, 4.0
8.11000, 10.0
8.12000, 10.0
8.13000, 8.0
8.14000, 2.0
8.15000, 4.0
8.16000, 10.0
8.17000, 3.0
8.18000, 5.0
8.19000, 3.0
8.20000, 4.0
8.21000, 11.0
8.22000, 6.0
8.23000, 5.0
8.24000, 6.0
8.25000, 7.0
8.26000, 3.0
8.27000, 5.0
8.28000, 5.0
8.29000, 4.0
8.30000, 2.0
8.31000, 4.0
8.32000, 6.0
8.33000, 7.0
8.34000, 5.0
8.35000, 3.0
8.36000, 10.0
8.37000, 2.0
8.38000, 3.0
8.39000, 4.0
8.40000, 5.0
8.41000, 9.0
8.42000, 10.0
8.43000, 7.0
8.44000, 7.0
8.45000, 9.0
8.46000, 4.0
8.47000, 3.0
8.48000, 5.0
8.49000, 6.0
8.50000, 2.0
8.51000, 5.0
8.52000, 8.0
8.53000, 5.0
8.54000, 2.0
8.55000, 6.0
8.56000, 5.0
8.57000, 4.0
8.58000, 3.0
8.59000, 7.0
8.60000, 6.0
8.61000, 4.0
8.62000, 7.0
8.63000, 1.0
8.64000, 4.0
8.65000, 7.0
8.66000, 3.0
8.67000, 4.0
8.68000, 4.0
8.69000, 6.0
8.70000, 3.0
8.71000, 1.0
8.72000, 5.0
8.73000, 4.0
8.74000, 7.0
8.75000, 5.0
8.76000, 3.0
8.77000, 4.0
8.78000, 2.0
8.79000, 4.0
8.80000, 6.0
8.81000, 3.0
8.82000, 2.0
8.83000, 3.0
8.84000, 3.0
8.85000, 4.0
8.86000, 1.0
8.87000, 3.0
8.88000, 6.0
8.89000, 4.0
8.90000, 0.0
8.91000, 2.0
8.92000, 5.0
8.93000, 4.0
8.94000, 4.0
8.95000, 1.0
8.96000, 2.0
8.97000, 4.0
8.98000, 1.0
8.99000, 4.0
9.00000, 3.0
9.01000, 0.0
9.02000, 3.0
9.03000, 1.0
9.04000, 5.0
9.05000, 3.0
9.06000, 4.0
9.07000, 2.0
9.08000, 1.0
9.09000, 1.0
9.10000, 3.0
9.11000, 3.0
9.12000, 4.0
9.13000, 2.0
9.14000, 0.0
9.15000, 3.0
9.16000, 0.0
9.17000, 3.0
9.18000, 0.0
9.19000, 0.0
9.20000, 2.0
9.21000, 5.0
9.22000, 3.0
9.23000, 3.0
9.24000, 1.0
9.25000, 1.0
9.26000, 1.0
9.27000, 2.0
9.28000, 1.0
9.29000, 0.0
9.30000, 3.0
9.31000, 2.0
9.32000, 0.0
9.33000, 0.0
9.34000, 3.0
9.35000, 1.0
9.36000, 2.0
9.37000, 0.0
9.38000, 1.0
9.39000, 0.0
9.40000, 2.0
9.41000, 2.0
9.42000, 4.0
9.43000, 2.0
9.44000, 3.0
9.45000, 2.0
9.46000, 2.0
9.47000, 2.0
9.48000, 2.0
9.49000, 3.0
9.50000, 1.0
9.51000, 1.0
9.52000, 0.0
9.53000, 1.0
9.54000, 1.0
9.55000, 3.0
9.56000, 0.0
9.57000, 0.0
9.58000, 0.0
9.59000, 1.0
9.60000, 0.0
9.61000, 1.0
9.62000, 0.0
9.63000, 1.0
9.64000, 1.0
9.65000, 0.0
9.66000, 0.0
9.67000, 0.0
9.68000, 2.0
9.69000, 1.0
9.70000, 0.0
9.71000, 1.0
9.72000, 2.0
9.73000, 0.0
9.74000, 1.0
9.75000, 0.0
9.76000, 1.0
9.77000, 0.0
9.78000, 1.0
9.79000, 2.0
9.80000, 3.0
9.81000, 0.0
9.82000, 1.0
9.83000, 0.0
9.84000, 0.0
9.85000, 0.0
9.86000, 1.0
9.87000, 1.0
9.88000, 0.0
9.89000, 0.0
9.90000, 0.0
9.91000, 1.0
9.92000, 0.0
9.93000, 0.0
9.94000, 0.0
9.95000, 0.0
9.96000, 1.0
9.97000, 1.0
9.98000, 0.0
9.99000, 0.0
10.00000, 0.0
10.01000, 0.0
10.02000, 0.0
10.03000, 0.0
10.04000, 0.0
10.05000, 0.0
10.06000, 0.0
10.07000, 0.0
10.08000, 0.0
10.09000, 0.0
10.10000, 0.0
10.11000, 0.0
10.12000, 0.0
10.13000, 0.0
10.13500, 0.0
#ENDOFDATA   :