File: Spectras 20250424/20250425_10K_B9_1.txt
#FORMAT      : EMSA/MAS Spectral Data File
#VERSION     : 1.0
#TITLE       : 20250425_10K_B9_1
#DATE        : 24-APR-2025
#TIME        : 10:18
#OWNER       :
#NPOINTS     : 2048.0
#NCOLUMNS    : 1.0
#XUNITS      : keV
#YUNITS      : counts
#DATATYPE    : XY
#XPERCHAN    : 0.005
#OFFSET      : -0.1
#SIGNALTYPE  : EDS
#CHOFFSET    : 20.0
#LIVETIME    : 60.0
#REALTIME    : 61.8551
#BEAMKV      : 10.0
#MAGCAM      : 3300.0
#XTILTSTGE   : 0.0
#AZIMANGLE   : 0.0
#ELEVANGLE   : 29.0
#XPOSITION mm: 1.4805
#YPOSITION mm: -1.5293
#ZPOSITION mm: 13.5200
##OXINSTPT   : 2
##OXINSTSTROB: 67.62
#SPECTRUM    : Spectral Data Starts Here
-0.10000, 0.0
-0.09000, 0.0
-0.08000, 0.0
-0.07000, 0.0
-0.06000, 7.0
-0.05000, 8.0
-0.04000, 26.0
-0.03000, 67.0
-0.02000, 119.0
-0.01000, 240.0
0.00000, 377.0
0.01000, 563.0
0.02000, 767.0
0.03000, 898.0
0.04000, 1036.0
0.05000, 1105.0
0.06000, 1008.0
0.07000, 882.0
0.08000, 613.0
0.09000, 437.0
0.10000, 303.0
0.11000, 198.0
0.12000, 135.0
0.13000, 111.0
0.14000, 102.0
0.15000, 92.0
0.16000, 109.0
0.17000, 87.0
0.18000, 83.0
0.19000, 103.0
0.20000, 92.0
0.21000, 98.0
0.22000, 116.0
0.23000, 108.0
0.24000, 139.0
0.25000, 131.0
0.26000, 167.0
0.27000, 151.0
0.28000, 140.0
0.29000, 130.0
0.30000, 123.0
0.31000, 119.0
0.32000, 96.0
0.33000, 86.0
0.34000, 76.0
0.35000, 84.0
0.36000, 85.0
0.37000, 95.0
0.38000, 107.0
0.39000, 134.0
0.40000, 156.0
0.41000, 171.0
0.42000, 209.0
0.43000, 300.0
0.44000, 461.0
0.45000, 786.0
0.46000, 1189.0
0.47000, 1920.0
0.48000, 2678.0
0.49000, 3699.0
0.50000, 4598.0
0.51000, 5415.0
0.52000, 5860.0
0.53000, 5715.0
0.54000, 4993.0
0.55000, 4167.0
0.56000, 3053.0
0.57000, 2132.0
0.58000, 1292.0
0.59000, 820.0
0.60000, 472.0
0.61000, 247.0
0.62000, 153.0
0.63000, 120.0
0.64000, 96.0
0.65000, 103.0
0.66000, 123.0
0.67000, 101.0
0.68000, 95.0
0.69000, 117.0
0.70000, 116.0
0.71000, 131.0
0.72000, 113.0
0.73000, 131.0
0.74000, 133.0
0.75000, 149.0
0.76000, 140.0
0.77000, 148.0
0.78000, 140.0
0.79000, 143.0
0.80000, 146.0
0.81000, 167.0
0.82000, 163.0
0.83000, 178.0
0.84000, 182.0
0.85000, 164.0
0.86000, 183.0
0.87000, 155.0
0.88000, 157.0
0.89000, 174.0
0.90000, 157.0
0.91000, 187.0
0.92000, 184.0
0.93000, 175.0
0.94000, 185.0
0.95000, 160.0
0.96000, 182.0
0.97000, 192.0
0.98000, 184.0
0.99000, 183.0
1.00000, 224.0
1.01000, 202.0
1.02000, 184.0
1.03000, 206.0
1.04000, 190.0
1.05000, 201.0
1.06000, 188.0
1.07000, 203.0
1.08000, 175.0
1.09000, 189.0
1.10000, 188.0
1.11000, 203.0
1.12000, 191.0
1.13000, 191.0
1.14000, 184.0
1.15000, 215.0
1.16000, 186.0
1.17000, 185.0
1.18000, 194.0
1.19000, 192.0
1.20000, 185.0
1.21000, 178.0
1.22000, 206.0
1.23000, 184.0
1.24000, 187.0
1.25000, 226.0
1.26000, 178.0
1.27000, 232.0
1.28000, 211.0
1.29000, 193.0
1.30000, 180.0
1.31000, 232.0
1.32000, 210.0
1.33000, 200.0
1.34000, 206.0
1.35000, 195.0
1.36000, 195.0
1.37000, 201.0
1.38000, 198.0
1.39000, 213.0
1.40000, 204.0
1.41000, 195.0
1.42000, 227.0
1.43000, 188.0
1.44000, 198.0
1.45000, 202.0
1.46000, 205.0
1.47000, 211.0
1.48000, 208.0
1.49000, 227.0
1.50000, 226.0
1.51000, 223.0
1.52000, 239.0
1.53000, 238.0
1.54000, 222.0
1.55000, 210.0
1.56000, 223.0
1.57000, 216.0
1.58000, 249.0
1.59000, 221.0
1.60000, 252.0
1.61000, 304.0
1.62000, 332.0
1.63000, 462.0
1.64000, 774.0
1.65000, 1140.0
1.66000, 1848.0
1.67000, 2862.0
1.68000, 4267.0
1.69000, 6061.0
1.70000, 8031.0
1.71000, 10086.0
1.72000, 12034.0
1.73000, 13367.0
1.74000, 14078.0
1.75000, 13838.0
1.76000, 12776.0
1.77000, 11198.0
1.78000, 9251.0
1.79000, 7175.0
1.80000, 5360.0
1.81000, 3992.0
1.82000, 2809.0
1.83000, 2010.0
1.84000, 1385.0
1.85000, 1001.0
1.86000, 771.0
1.87000, 588.0
1.88000, 451.0
1.89000, 345.0
1.90000, 271.0
1.91000, 221.0
1.92000, 170.0
1.93000, 153.0
1.94000, 115.0
1.95000, 111.0
1.96000, 98.0
1.97000, 118.0
1.98000, 94.0
1.99000, 96.0
2.00000, 100.0
2.01000, 95.0
2.02000, 103.0
2.03000, 101.0
2.04000, 95.0
2.05000, 77.0
2.06000, 90.0
2.07000, 98.0
2.08000, 97.0
2.09000, 88.0
2.10000, 65.0
2.11000, 88.0
2.12000, 95.0
2.13000, 102.0
2.14000, 98.0
2.15000, 96.0
2.16000, 92.0
2.17000, 90.0
2.18000, 99.0
2.19000, 122.0
2.20000, 103.0
2.21000, 122.0
2.22000, 150.0
2.23000, 185.0
2.24000, 198.0
2.25000, 224.0
2.26000, 280.0
2.27000, 342.0
2.28000, 355.0
2.29000, 396.0
2.30000, 454.0
2.31000, 385.0
2.32000, 427.0
2.33000, 373.0
2.34000, 340.0
2.35000, 292.0
2.36000, 287.0
2.37000, 239.0
2.38000, 182.0
2.39000, 191.0
2.40000, 166.0
2.41000, 147.0
2.42000, 150.0
2.43000, 140.0
2.44000, 120.0
2.45000, 122.0
2.46000, 110.0
2.47000, 131.0
2.48000, 102.0
2.49000, 109.0
2.50000, 104.0
2.51000, 110.0
2.52000, 95.0
2.53000, 87.0
2.54000, 90.0
2.55000, 86.0
2.56000, 89.0
2.57000, 91.0
2.58000, 81.0
2.59000, 81.0
2.60000, 78.0
2.61000, 87.0
2.62000, 77.0
2.63000, 96.0
2.64000, 73.0
2.65000, 90.0
2.66000, 73.0
2.67000, 81.0
2.68000, 90.0
2.69000, 70.0
2.70000, 76.0
2.71000, 62.0
2.72000, 85.0
2.73000, 83.0
2.74000, 60.0
2.75000, 79.0
2.76000, 68.0
2.77000, 75.0
2.78000, 86.0
2.79000, 66.0
2.80000, 71.0
2.81000, 61.0
2.82000, 70.0
2.83000, 68.0
2.84000, 85.0
2.85000, 64.0
2.86000, 70.0
2.87000, 63.0
2.88000, 68.0
2.89000, 70.0
2.90000, 72.0
2.91000, 88.0
2.92000, 67.0
2.93000, 67.0
2.94000, 79.0
2.95000, 66.0
2.96000, 65.0
2.97000, 57.0
2.98000, 61.0
2.99000, 61.0
3.00000, 64.0
3.01000, 56.0
3.02000, 74.0
3.03000, 66.0
3.04000, 69.0
3.05000, 70.0
3.06000, 54.0
3.07000, 74.0
3.08000, 56.0
3.09000, 67.0
3.10000, 69.0
3.11000, 84.0
3.12000, 79.0
3.13000, 53.0
3.14000, 67.0
3.15000, 58.0
3.16000, 63.0
3.17000, 64.0
3.18000, 63.0
3.19000, 63.0
3.20000, 62.0
3.21000, 57.0
3.22000, 58.0
3.23000, 66.0
3.24000, 56.0
3.25000, 62.0
3.26000, 63.0
3.27000, 53.0
3.28000, 56.0
3.29000, 75.0
3.30000, 65.0
3.31000, 51.0
3.32000, 61.0
3.33000, 57.0
3.34000, 59.0
3.35000, 56.0
3.36000, 67.0
3.37000, 70.0
3.38000, 51.0
3.39000, 49.0
3.40000, 59.0
3.41000, 54.0
3.42000, 68.0
3.43000, 84.0
3.44000, 64.0
3.45000, 69.0
3.46000, 71.0
3.47000, 80.0
3.48000, 82.0
3.49000, 73.0
3.50000, 73.0
3.51000, 83.0
3.52000, 76.0
3.53000, 79.0
3.54000, 62.0
3.55000, 55.0
3.56000, 60.0
3.57000, 59.0
3.58000, 60.0
3.59000, 55.0
3.60000, 48.0
3.61000, 40.0
3.62000, 47.0
3.63000, 54.0
3.64000, 46.0
3.65000, 49.0
3.66000, 56.0
3.67000, 49.0
3.68000, 61.0
3.69000, 48.0
3.70000, 40.0
3.71000, 36.0
3.72000, 54.0
3.73000, 57.0
3.74000, 40.0
3.75000, 44.0
3.76000, 35.0
3.77000, 48.0
3.78000, 47.0
3.79000, 47.0
3.80000, 48.0
3.81000, 46.0
3.82000, 44.0
3.83000, 61.0
3.84000, 48.0
3.85000, 42.0
3.86000, 35.0
3.87000, 38.0
3.88000, 43.0
3.89000, 44.0
3.90000, 44.0
3.91000, 49.0
3.92000, 47.0
3.93000, 48.0
3.94000, 52.0
3.95000, 49.0
3.96000, 66.0
3.97000, 45.0
3.98000, 38.0
3.99000, 47.0
4.00000, 33.0
4.01000, 44.0
4.02000, 46.0
4.03000, 49.0
4.04000, 49.0
4.05000, 55.0
4.06000, 54.0
4.07000, 30.0
4.08000, 58.0
4.09000, 46.0
4.10000, 43.0
4.11000, 45.0
4.12000, 43.0
4.13000, 47.0
4.14000, 45.0
4.15000, 40.0
4.16000, 33.0
4.17000, 46.0
4.18000, 54.0
4.19000, 43.0
4.20000, 42.0
4.21000, 33.0
4.22000, 39.0
4.23000, 48.0
4.24000, 42.0
4.25000, 44.0
4.26000, 42.0
4.27000, 27.0
4.28000, 47.0
4.29000, 35.0
4.30000, 55.0
4.31000, 45.0
4.32000, 44.0
4.33000, 46.0
4.34000, 33.0
4.35000, 34.0
4.36000, 36.0
4.37000, 26.0
4.38000, 38.0
4.39000, 31.0
4.40000, 36.0
4.41000, 36.0
4.42000, 42.0
4.43000, 37.0
4.44000, 36.0
4.45000, 28.0
4.46000, 41.0
4.47000, 35.0
4.48000, 35.0
4.49000, 41.0
4.50000, 35.0
4.51000, 31.0
4.52000, 32.0
4.53000, 33.0
4.54000, 44.0
4.55000, 33.0
4.56000, 39.0
4.57000, 37.0
4.58000, 34.0
4.59000, 30.0
4.60000, 31.0
4.61000, 31.0
4.62000, 37.0
4.63000, 20.0
4.64000, 31.0
4.65000, 28.0
4.66000, 46.0
4.67000, 27.0
4.68000, 38.0
4.69000, 31.0
4.70000, 33.0
4.71000, 31.0
4.72000, 30.0
4.73000, 25.0
4.74000, 28.0
4.75000, 19.0
4.76000, 34.0
4.77000, 34.0
4.78000, 46.0
4.79000, 39.0
4.80000, 25.0
4.81000, 24.0
4.82000, 24.0
4.83000, 26.0
4.84000, 41.0
4.85000, 25.0
4.86000, 30.0
4.87000, 34.0
4.88000, 34.0
4.89000, 31.0
4.90000, 27.0
4.91000, 26.0
4.92000, 34.0
4.93000, 29.0
4.94000, 33.0
4.95000, 30.0
4.96000, 20.0
4.97000, 29.0
4.98000, 33.0
4.99000, 32.0
5.00000, 34.0
5.01000, 28.0
5.02000, 30.0
5.03000, 28.0
5.04000, 29.0
5.05000, 24.0
5.06000, 27.0
5.07000, 37.0
5.08000, 25.0
5.09000, 30.0
5.10000, 29.0
5.11000, 25.0
5.12000, 34.0
5.13000, 33.0
5.14000, 32.0
5.15000, 34.0
5.16000, 30.0
5.17000, 26.0
5.18000, 30.0
5.19000, 20.0
5.20000, 19.0
5.21000, 28.0
5.22000, 30.0
5.23000, 21.0
5.24000, 18.0
5.25000, 27.0
5.26000, 33.0
5.27000, 22.0
5.28000, 33.0
5.29000, 24.0
5.30000, 24.0
5.31000, 20.0
5.32000, 20.0
5.33000, 18.0
5.34000, 27.0
5.35000, 22.0
5.36000, 24.0
5.37000, 25.0
5.38000, 17.0
5.39000, 24.0
5.40000, 20.0
5.41000, 29.0
5.42000, 26.0
5.43000, 17.0
5.44000, 23.0
5.45000, 30.0
5.46000, 25.0
5.47000, 19.0
5.48000, 29.0
5.49000, 29.0
5.50000, 27.0
5.51000, 30.0
5.52000, 20.0
5.53000, 16.0
5.54000, 26.0
5.55000, 27.0
5.56000, 19.0
5.57000, 19.0
5.58000, 18.0
5.59000, 26.0
5.60000, 26.0
5.61000, 22.0
5.62000, 15.0
5.63000, 21.0
5.64000, 24.0
5.65000, 22.0
5.66000, 17.0
5.67000, 18.0
5.68000, 19.0
5.69000, 21.0
5.70000, 23.0
5.71000, 24.0
5.72000, 23.0
5.73000, 29.0
5.74000, 23.0
5.75000, 19.0
5.76000, 13.0
5.77000, 20.0
5.78000, 22.0
5.79000, 26.0
5.80000, 18.0
5.81000, 24.0
5.82000, 23.0
5.83000, 21.0
5.84000, 30.0
5.85000, 16.0
5.86000, 29.0
5.87000, 21.0
5.88000, 21.0
5.89000, 18.0
5.90000, 23.0
5.91000, 25.0
5.92000, 20.0
5.93000, 19.0
5.94000, 20.0
5.95000, 13.0
5.96000, 23.0
5.97000, 19.0
5.98000, 13.0
5.99000, 25.0
6.00000, 25.0
6.01000, 16.0
6.02000, 21.0
6.03000, 21.0
6.04000, 18.0
6.05000, 29.0
6.06000, 14.0
6.07000, 22.0
6.08000, 27.0
6.09000, 17.0
6.10000, 24.0
6.11000, 17.0
6.12000, 21.0
6.13000, 19.0
6.14000, 17.0
6.15000, 12.0
6.16000, 23.0
6.17000, 22.0
6.18000, 24.0
6.19000, 17.0
6.20000, 12.0
6.21000, 20.0
6.22000, 20.0
6.23000, 21.0
6.24000, 24.0
6.25000, 16.0
6.26000, 19.0
6.27000, 18.0
6.28000, 10.0
6.29000, 20.0
6.30000, 19.0
6.31000, 15.0
6.32000, 18.0
6.33000, 21.0
6.34000, 17.0
6.35000, 21.0
6.36000, 20.0
6.37000, 13.0
6.38000, 17.0
6.39000, 20.0
6.40000, 8.0
6.41000, 8.0
6.42000, 11.0
6.43000, 18.0
6.44000, 16.0
6.45000, 13.0
6.46000, 16.0
6.47000, 10.0
6.48000, 21.0
6.49000, 15.0
6.50000, 22.0
6.51000, 11.0
6.52000, 10.0
6.53000, 12.0
6.54000, 22.0
6.55000, 15.0
6.56000, 13.0
6.57000, 16.0
6.58000, 15.0
6.59000, 20.0
6.60000, 10.0
6.61000, 12.0
6.62000, 13.0
6.63000, 13.0
6.64000, 16.0
6.65000, 15.0
6.66000, 13.0
6.67000, 12.0
6.68000, 10.0
6.69000, 11.0
6.70000, 7.0
6.71000, 14.0
6.72000, 12.0
6.73000, 17.0
6.74000, 16.0
6.75000, 14.0
6.76000, 10.0
6.77000, 10.0
6.78000, 11.0
6.79000, 14.0
6.80000, 10.0
6.81000, 13.0
6.82000, 12.0
6.83000, 6.0
6.84000, 14.0
6.85000, 17.0
6.86000, 9.0
6.87000, 12.0
6.88000, 15.0
6.89000, 12.0
6.90000, 12.0
6.91000, 13.0
6.92000, 11.0
6.93000, 9.0
6.94000, 11.0
6.95000, 14.0
6.96000, 17.0
6.97000, 12.0
6.98000, 12.0
6.99000, 14.0
7.00000, 9.0
7.01000, 13.0
7.02000, 10.0
7.03000, 15.0
7.04000, 14.0
7.05000, 13.0
7.06000, 11.0
7.07000, 11.0
7.08000, 13.0
7.09000, 12.0
7.10000, 12.0
7.11000, 10.0
7.12000, 19.0
7.13000, 8.0
7.14000, 11.0
7.15000, 13.0
7.16000, 11.0
7.17000, 11.0
7.18000, 7.0
7.19000, 10.0
7.20000, 9.0
7.21000, 11.0
7.22000, 8.0
7.23000, 18.0
7.24000, 14.0
7.25000, 9.0
7.26000, 7.0
7.27000, 14.0
7.28000, 8.0
7.29000, 11.0
7.30000, 10.0
7.31000, 8.0
7.32000, 12.0
7.33000, 9.0
7.34000, 4.0
7.35000, 4.0
7.36000, 12.0
7.37000, 10.0
7.38000, 5.0
7.39000, 10.0
7.40000, 9.0
7.41000, 10.0
7.42000, 7.0
7.43000, 17.0
7.44000, 7.0
7.45000, 7.0
7.46000, 8.0
7.47000, 15.0
7.48000, 7.0
7.49000, 14.0
7.50000, 9.0
7.51000, 9.0
7.52000, 7.0
7.53000, 0.0
7.54000, 10.0
7.55000, 7.0
7.56000, 12.0
7.57000, 6.0
7.58000, 5.0
7.59000, 5.0
7.60000, 7.0
7.61000, 10.0
7.62000, 5.0
7.63000, 14.0
7.64000, 8.0
7.65000, 14.0
7.66000, 8.0
7.67000, 12.0
7.68000, 5.0
7.69000, 7.0
7.70000, 9.0
7.71000, 9.0
7.72000, 6.0
7.73000, 14.0
7.74000, 4.0
7.75000, 10.0
7.76000, 12.0
7.77000, 7.0
7.78000, 9.0
7.79000, 9.0
7.80000, 6.0
7.81000, 5.0
7.82000, 7.0
7.83000, 6.0
7.84000, 8.0
7.85000, 10.0
7.86000, 10.0
7.87000, 7.0
7.88000, 10.0
7.89000, 14.0
7.90000, 6.0
7.91000, 5.0
7.92000, 8.0
7.93000, 9.0
7.94000, 3.0
7.95000, 7.0
7.96000, 8.0
7.97000, 4.0
7.98000, 11.0
7.99000, 11.0
8.00000, 8.0
8.01000, 3.0
8.02000, 8.0
8.03000, 10.0
8.04000, 9.0
8.05000, 4.0
8.06000, 6.0
8.07000, 9.0
8.08000, 5.0
8.09000, 4.0
8.10000, 5.0
8.11000, 5.0
8.12000, 8.0
8.13000, 7.0
8.14000, 11.0
8.15000, 5.0
8.16000, 6.0
8.17000, 4.0
8.18000, 1.0
8.19000, 6.0
8.20000, 3.0
8.21000, 9.0
8.22000, 5.0
8.23000, 4.0
8.24000, 5.0
8.25000, 7.0
8.26000, 2.0
8.27000, 5.0
8.28000, 6.0
8.29000, 7.0
8.30000, 4.0
8.31000, 2.0
8.32000, 5.0
8.33000, 5.0
8.34000, 7.0
8.35000, 7.0
8.36000, 6.0
8.37000, 7.0
8.38000, 3.0
8.39000, 4.0
8.40000, 10.0
8.41000, 3.0
8.42000, 4.0
8.43000, 4.0
8.44000, 2.0
8.45000, 10.0
8.46000, 6.0
8.47000, 4.0
8.48000, 8.0
8.49000, 5.0
8.50000, 9.0
8.51000, 9.0
8.52000, 4.0
8.53000, 4.0
8.54000, 5.0
8.55000, 6.0
8.56000, 2.0
8.57000, 3.0
8.58000, 3.0
8.59000, 3.0
8.60000, 3.0
8.61000, 8.0
8.62000, 4.0
8.63000, 7.0
8.64000, 3.0
8.65000, 2.0
8.66000, 4.0
8.67000, 5.0
8.68000, 7.0
8.69000, 4.0
8.70000, 5.0
8.71000, 4.0
8.72000, 6.0
8.73000, 4.0
8.74000, 2.0
8.75000, 2.0
8.76000, 5.0
8.77000, 4.0
8.78000, 10.0
8.79000, 5.0
8.80000, 4.0
8.81000, 2.0
8.82000, 0.0
8.83000, 2.0
8.84000, 2.0
8.85000, 5.0
8.86000, 4.0
8.87000, 2.0
8.88000, 1.0
8.89000, 3.0
8.90000, 5.0
8.91000, 4.0
8.92000, 3.0
8.93000, 2.0
8.94000, 2.0
8.95000, 0.0
8.96000, 2.0
8.97000, 2.0
8.98000, 2.0
8.99000, 3.0
9.00000, 3.0
9.01000, 1.0
9.02000, 2.0
9.03000, 4.0
9.04000, 1.0
9.05000, 3.0
9.06000, 4.0
9.07000, 2.0
9.08000, 2.0
9.09000, 5.0
9.10000, 4.0
9.11000, 4.0
9.12000, 3.0
9.13000, 4.0
9.14000, 4.0
9.15000, 3.0
9.16000, 0.0
9.17000, 7.0
9.18000, 3.0
9.19000, 2.0
9.20000, 1.0
9.21000, 1.0
9.22000, 3.0
9.23000, 2.0
9.24000, 5.0
9.25000, 3.0
9.26000, 3.0
9.27000, 2.0
9.28000, 3.0
9.29000, 1.0
9.30000, 1.0
9.31000, 3.0
9.32000, 6.0
9.33000, 0.0
9.34000, 3.0
9.35000, 1.0
9.36000, 4.0
9.37000, 3.0
9.38000, 2.0
9.39000, 3.0
9.40000, 2.0
9.41000, 3.0
9.42000, 1.0
9.43000, 2.0
9.44000, 1.0
9.45000, 3.0
9.46000, 0.0
9.47000, 4.0
9.48000, 2.0
9.49000, 1.0
9.50000, 3.0
9.51000, 0.0
9.52000, 3.0
9.53000, 1.0
9.54000, 1.0
9.55000, 1.0
9.56000, 2.0
9.57000, 2.0
9.58000, 1.0
9.59000, 0.0
9.60000, 0.0
9.61000, 3.0
9.62000, 2.0
9.63000, 2.0
9.64000, 2.0
9.65000, 2.0
9.66000, 2.0
9.67000, 2.0
9.68000, 6.0
9.69000, 0.0
9.70000, 1.0
9.71000, 3.0
9.72000, 0.0
9.73000, 0.0
9.74000, 2.0
9.75000, 1.0
9.76000, 1.0
9.77000, 0.0
9.78000, 0.0
9.79000, 2.0
9.80000, 3.0
9.81000, 0.0
9.82000, 1.0
9.83000, 2.0
9.84000, 1.0
9.85000, 0.0
9.86000, 3.0
9.87000, 0.0
9.88000, 3.0
9.89000, 0.0
9.90000, 2.0
9.91000, 0.0
9.92000, 1.0
9.93000, 1.0
9.94000, 1.0
9.95000, 1.0
9.96000, 1.0
9.97000, 0.0
9.98000, 1.0
9.99000, 0.0
10.00000, 0.0
10.01000, 0.0
10.02000, 0.0
10.03000, 0.0
10.04000, 0.0
10.05000, 0.0
10.06000, 0.0
10.07000, 0.0
10.08000, 1.0
10.09000, 0.0
10.10000, 0.0
10.11000, 0.0
10.12000, 1.0
10.13000, 0.0
10.13500, 0.0
#ENDOFDATA   :