File: Spectras 20250424/20250425_10K_C6_2.txt
#FORMAT      : EMSA/MAS Spectral Data File
#VERSION     : 1.0
#TITLE       : 20250425_10K_C6_2
#DATE        : 24-APR-2025
#TIME        : 10:24
#OWNER       :
#NPOINTS     : 2048.0
#NCOLUMNS    : 1.0
#XUNITS      : keV
#YUNITS      : counts
#DATATYPE    : XY
#XPERCHAN    : 0.005
#OFFSET      : -0.1
#SIGNALTYPE  : EDS
#CHOFFSET    : 20.0
#LIVETIME    : 60.0002
#REALTIME    : 61.8549
#BEAMKV      : 10.0
#MAGCAM      : 700.0
#XTILTSTGE   : 0.0
#AZIMANGLE   : 0.0
#ELEVANGLE   : 29.0
#XPOSITION mm: 1.8685
#YPOSITION mm: -0.6548
#ZPOSITION mm: 13.5200
##OXINSTPT   : 2
##OXINSTSTROB: 67.47
#SPECTRUM    : Spectral Data Starts Here
-0.10000, 0.0
-0.09000, 0.0
-0.08000, 1.0
-0.07000, 0.0
-0.06000, 3.0
-0.05000, 11.0
-0.04000, 24.0
-0.03000, 64.0
-0.02000, 140.0
-0.01000, 264.0
0.00000, 386.0
0.01000, 607.0
0.02000, 751.0
0.03000, 951.0
0.04000, 1036.0
0.05000, 1097.0
0.06000, 1009.0
0.07000, 857.0
0.08000, 670.0
0.09000, 463.0
0.10000, 307.0
0.11000, 215.0
0.12000, 124.0
0.13000, 107.0
0.14000, 94.0
0.15000, 94.0
0.16000, 75.0
0.17000, 94.0
0.18000, 95.0
0.19000, 100.0
0.20000, 108.0
0.21000, 114.0
0.22000, 116.0
0.23000, 103.0
0.24000, 129.0
0.25000, 141.0
0.26000, 144.0
0.27000, 149.0
0.28000, 152.0
0.29000, 114.0
0.30000, 123.0
0.31000, 102.0
0.32000, 75.0
0.33000, 84.0
0.34000, 74.0
0.35000, 79.0
0.36000, 84.0
0.37000, 95.0
0.38000, 98.0
0.39000, 131.0
0.40000, 149.0
0.41000, 199.0
0.42000, 217.0
0.43000, 330.0
0.44000, 486.0
0.45000, 818.0
0.46000, 1306.0
0.47000, 1910.0
0.48000, 2859.0
0.49000, 3773.0
0.50000, 4839.0
0.51000, 5615.0
0.52000, 5903.0
0.53000, 5727.0
0.54000, 5084.0
0.55000, 4162.0
0.56000, 3095.0
0.57000, 2113.0
0.58000, 1318.0
0.59000, 791.0
0.60000, 476.0
0.61000, 278.0
0.62000, 162.0
0.63000, 119.0
0.64000, 103.0
0.65000, 98.0
0.66000, 109.0
0.67000, 118.0
0.68000, 104.0
0.69000, 122.0
0.70000, 108.0
0.71000, 130.0
0.72000, 137.0
0.73000, 117.0
0.74000, 132.0
0.75000, 146.0
0.76000, 147.0
0.77000, 133.0
0.78000, 141.0
0.79000, 165.0
0.80000, 172.0
0.81000, 155.0
0.82000, 164.0
0.83000, 158.0
0.84000, 168.0
0.85000, 172.0
0.86000, 163.0
0.87000, 150.0
0.88000, 174.0
0.89000, 178.0
0.90000, 181.0
0.91000, 179.0
0.92000, 191.0
0.93000, 190.0
0.94000, 197.0
0.95000, 169.0
0.96000, 201.0
0.97000, 200.0
0.98000, 193.0
0.99000, 188.0
1.00000, 206.0
1.01000, 190.0
1.02000, 192.0
1.03000, 172.0
1.04000, 198.0
1.05000, 199.0
1.06000, 187.0
1.07000, 176.0
1.08000, 198.0
1.09000, 224.0
1.10000, 193.0
1.11000, 194.0
1.12000, 204.0
1.13000, 189.0
1.14000, 223.0
1.15000, 204.0
1.16000, 201.0
1.17000, 194.0
1.18000, 196.0
1.19000, 204.0
1.20000, 179.0
1.21000, 195.0
1.22000, 187.0
1.23000, 198.0
1.24000, 207.0
1.25000, 196.0
1.26000, 207.0
1.27000, 192.0
1.28000, 191.0
1.29000, 188.0
1.30000, 204.0
1.31000, 198.0
1.32000, 184.0
1.33000, 193.0
1.34000, 198.0
1.35000, 192.0
1.36000, 215.0
1.37000, 199.0
1.38000, 193.0
1.39000, 212.0
1.40000, 198.0
1.41000, 192.0
1.42000, 204.0
1.43000, 208.0
1.44000, 192.0
1.45000, 221.0
1.46000, 229.0
1.47000, 227.0
1.48000, 222.0
1.49000, 225.0
1.50000, 225.0
1.51000, 206.0
1.52000, 249.0
1.53000, 225.0
1.54000, 231.0
1.55000, 217.0
1.56000, 202.0
1.57000, 222.0
1.58000, 241.0
1.59000, 240.0
1.60000, 271.0
1.61000, 292.0
1.62000, 361.0
1.63000, 485.0
1.64000, 696.0
1.65000, 1156.0
1.66000, 1809.0
1.67000, 2764.0
1.68000, 4353.0
1.69000, 6064.0
1.70000, 8120.0
1.71000, 10160.0
1.72000, 12146.0
1.73000, 13382.0
1.74000, 14008.0
1.75000, 13711.0
1.76000, 12895.0
1.77000, 11270.0
1.78000, 9318.0
1.79000, 7472.0
1.80000, 5370.0
1.81000, 3879.0
1.82000, 2729.0
1.83000, 1929.0
1.84000, 1403.0
1.85000, 1003.0
1.86000, 778.0
1.87000, 558.0
1.88000, 448.0
1.89000, 323.0
1.90000, 288.0
1.91000, 204.0
1.92000, 172.0
1.93000, 141.0
1.94000, 118.0
1.95000, 95.0
1.96000, 94.0
1.97000, 104.0
1.98000, 98.0
1.99000, 104.0
2.00000, 91.0
2.01000, 91.0
2.02000, 96.0
2.03000, 94.0
2.04000, 97.0
2.05000, 100.0
2.06000, 85.0
2.07000, 95.0
2.08000, 83.0
2.09000, 105.0
2.10000, 90.0
2.11000, 89.0
2.12000, 95.0
2.13000, 93.0
2.14000, 95.0
2.15000, 92.0
2.16000, 101.0
2.17000, 101.0
2.18000, 102.0
2.19000, 107.0
2.20000, 120.0
2.21000, 133.0
2.22000, 121.0
2.23000, 158.0
2.24000, 185.0
2.25000, 256.0
2.26000, 295.0
2.27000, 300.0
2.28000, 359.0
2.29000, 412.0
2.30000, 418.0
2.31000, 391.0
2.32000, 398.0
2.33000, 339.0
2.34000, 330.0
2.35000, 312.0
2.36000, 257.0
2.37000, 238.0
2.38000, 193.0
2.39000, 173.0
2.40000, 156.0
2.41000, 160.0
2.42000, 127.0
2.43000, 131.0
2.44000, 139.0
2.45000, 124.0
2.46000, 129.0
2.47000, 110.0
2.48000, 126.0
2.49000, 104.0
2.50000, 98.0
2.51000, 100.0
2.52000, 105.0
2.53000, 84.0
2.54000, 92.0
2.55000, 92.0
2.56000, 93.0
2.57000, 102.0
2.58000, 78.0
2.59000, 70.0
2.60000, 86.0
2.61000, 75.0
2.62000, 89.0
2.63000, 76.0
2.64000, 77.0
2.65000, 62.0
2.66000, 85.0
2.67000, 84.0
2.68000, 85.0
2.69000, 75.0
2.70000, 71.0
2.71000, 68.0
2.72000, 77.0
2.73000, 89.0
2.74000, 74.0
2.75000, 75.0
2.76000, 75.0
2.77000, 76.0
2.78000, 65.0
2.79000, 84.0
2.80000, 70.0
2.81000, 78.0
2.82000, 62.0
2.83000, 59.0
2.84000, 67.0
2.85000, 78.0
2.86000, 66.0
2.87000, 82.0
2.88000, 64.0
2.89000, 69.0
2.90000, 70.0
2.91000, 76.0
2.92000, 69.0
2.93000, 67.0
2.94000, 78.0
2.95000, 52.0
2.96000, 67.0
2.97000, 65.0
2.98000, 51.0
2.99000, 84.0
3.00000, 72.0
3.01000, 75.0
3.02000, 60.0
3.03000, 59.0
3.04000, 84.0
3.05000, 56.0
3.06000, 75.0
3.07000, 60.0
3.08000, 61.0
3.09000, 68.0
3.10000, 57.0
3.11000, 67.0
3.12000, 76.0
3.13000, 53.0
3.14000, 59.0
3.15000, 70.0
3.16000, 64.0
3.17000, 61.0
3.18000, 55.0
3.19000, 56.0
3.20000, 68.0
3.21000, 66.0
3.22000, 60.0
3.23000, 62.0
3.24000, 67.0
3.25000, 63.0
3.26000, 58.0
3.27000, 57.0
3.28000, 55.0
3.29000, 49.0
3.30000, 64.0
3.31000, 67.0
3.32000, 61.0
3.33000, 59.0
3.34000, 51.0
3.35000, 49.0
3.36000, 63.0
3.37000, 69.0
3.38000, 59.0
3.39000, 63.0
3.40000, 51.0
3.41000, 55.0
3.42000, 69.0
3.43000, 71.0
3.44000, 72.0
3.45000, 71.0
3.46000, 78.0
3.47000, 86.0
3.48000, 85.0
3.49000, 88.0
3.50000, 82.0
3.51000, 67.0
3.52000, 75.0
3.53000, 74.0
3.54000, 72.0
3.55000, 56.0
3.56000, 60.0
3.57000, 78.0
3.58000, 64.0
3.59000, 67.0
3.60000, 55.0
3.61000, 54.0
3.62000, 53.0
3.63000, 36.0
3.64000, 48.0
3.65000, 45.0
3.66000, 50.0
3.67000, 61.0
3.68000, 44.0
3.69000, 47.0
3.70000, 41.0
3.71000, 44.0
3.72000, 49.0
3.73000, 47.0
3.74000, 40.0
3.75000, 43.0
3.76000, 50.0
3.77000, 57.0
3.78000, 44.0
3.79000, 44.0
3.80000, 48.0
3.81000, 46.0
3.82000, 46.0
3.83000, 44.0
3.84000, 41.0
3.85000, 45.0
3.86000, 50.0
3.87000, 54.0
3.88000, 36.0
3.89000, 49.0
3.90000, 48.0
3.91000, 38.0
3.92000, 34.0
3.93000, 41.0
3.94000, 46.0
3.95000, 48.0
3.96000, 34.0
3.97000, 41.0
3.98000, 40.0
3.99000, 38.0
4.00000, 53.0
4.01000, 33.0
4.02000, 43.0
4.03000, 29.0
4.04000, 48.0
4.05000, 33.0
4.06000, 42.0
4.07000, 42.0
4.08000, 36.0
4.09000, 37.0
4.10000, 40.0
4.11000, 40.0
4.12000, 36.0
4.13000, 39.0
4.14000, 41.0
4.15000, 51.0
4.16000, 46.0
4.17000, 32.0
4.18000, 32.0
4.19000, 30.0
4.20000, 47.0
4.21000, 32.0
4.22000, 38.0
4.23000, 38.0
4.24000, 34.0
4.25000, 40.0
4.26000, 44.0
4.27000, 37.0
4.28000, 51.0
4.29000, 44.0
4.30000, 46.0
4.31000, 43.0
4.32000, 31.0
4.33000, 46.0
4.34000, 46.0
4.35000, 31.0
4.36000, 29.0
4.37000, 36.0
4.38000, 37.0
4.39000, 36.0
4.40000, 43.0
4.41000, 42.0
4.42000, 34.0
4.43000, 35.0
4.44000, 37.0
4.45000, 34.0
4.46000, 37.0
4.47000, 33.0
4.48000, 36.0
4.49000, 31.0
4.50000, 41.0
4.51000, 34.0
4.52000, 38.0
4.53000, 42.0
4.54000, 35.0
4.55000, 42.0
4.56000, 27.0
4.57000, 31.0
4.58000, 30.0
4.59000, 40.0
4.60000, 34.0
4.61000, 45.0
4.62000, 32.0
4.63000, 27.0
4.64000, 36.0
4.65000, 30.0
4.66000, 31.0
4.67000, 41.0
4.68000, 34.0
4.69000, 27.0
4.70000, 28.0
4.71000, 33.0
4.72000, 38.0
4.73000, 32.0
4.74000, 35.0
4.75000, 29.0
4.76000, 28.0
4.77000, 25.0
4.78000, 37.0
4.79000, 27.0
4.80000, 28.0
4.81000, 35.0
4.82000, 27.0
4.83000, 34.0
4.84000, 29.0
4.85000, 28.0
4.86000, 36.0
4.87000, 29.0
4.88000, 35.0
4.89000, 28.0
4.90000, 28.0
4.91000, 30.0
4.92000, 35.0
4.93000, 37.0
4.94000, 32.0
4.95000, 34.0
4.96000, 34.0
4.97000, 28.0
4.98000, 30.0
4.99000, 24.0
5.00000, 25.0
5.01000, 23.0
5.02000, 27.0
5.03000, 31.0
5.04000, 36.0
5.05000, 28.0
5.06000, 31.0
5.07000, 28.0
5.08000, 24.0
5.09000, 33.0
5.10000, 28.0
5.11000, 16.0
5.12000, 21.0
5.13000, 36.0
5.14000, 24.0
5.15000, 33.0
5.16000, 28.0
5.17000, 22.0
5.18000, 27.0
5.19000, 29.0
5.20000, 31.0
5.21000, 31.0
5.22000, 26.0
5.23000, 25.0
5.24000, 26.0
5.25000, 17.0
5.26000, 28.0
5.27000, 25.0
5.28000, 21.0
5.29000, 30.0
5.30000, 21.0
5.31000, 22.0
5.32000, 24.0
5.33000, 20.0
5.34000, 24.0
5.35000, 29.0
5.36000, 26.0
5.37000, 25.0
5.38000, 36.0
5.39000, 27.0
5.40000, 31.0
5.41000, 23.0
5.42000, 25.0
5.43000, 31.0
5.44000, 27.0
5.45000, 27.0
5.46000, 28.0
5.47000, 26.0
5.48000, 27.0
5.49000, 29.0
5.50000, 29.0
5.51000, 17.0
5.52000, 20.0
5.53000, 25.0
5.54000, 28.0
5.55000, 16.0
5.56000, 30.0
5.57000, 13.0
5.58000, 24.0
5.59000, 23.0
5.60000, 27.0
5.61000, 29.0
5.62000, 26.0
5.63000, 22.0
5.64000, 13.0
5.65000, 18.0
5.66000, 26.0
5.67000, 23.0
5.68000, 20.0
5.69000, 24.0
5.70000, 23.0
5.71000, 15.0
5.72000, 18.0
5.73000, 23.0
5.74000, 17.0
5.75000, 25.0
5.76000, 20.0
5.77000, 20.0
5.78000, 25.0
5.79000, 23.0
5.80000, 20.0
5.81000, 15.0
5.82000, 26.0
5.83000, 23.0
5.84000, 17.0
5.85000, 13.0
5.86000, 17.0
5.87000, 29.0
5.88000, 20.0
5.89000, 19.0
5.90000, 27.0
5.91000, 13.0
5.92000, 22.0
5.93000, 28.0
5.94000, 20.0
5.95000, 20.0
5.96000, 24.0
5.97000, 18.0
5.98000, 17.0
5.99000, 16.0
6.00000, 19.0
6.01000, 28.0
6.02000, 22.0
6.03000, 17.0
6.04000, 19.0
6.05000, 16.0
6.06000, 16.0
6.07000, 23.0
6.08000, 12.0
6.09000, 17.0
6.10000, 23.0
6.11000, 23.0
6.12000, 18.0
6.13000, 20.0
6.14000, 12.0
6.15000, 19.0
6.16000, 31.0
6.17000, 17.0
6.18000, 20.0
6.19000, 18.0
6.20000, 22.0
6.21000, 18.0
6.22000, 24.0
6.23000, 20.0
6.24000, 20.0
6.25000, 14.0
6.26000, 22.0
6.27000, 19.0
6.28000, 25.0
6.29000, 22.0
6.30000, 18.0
6.31000, 17.0
6.32000, 11.0
6.33000, 16.0
6.34000, 15.0
6.35000, 14.0
6.36000, 8.0
6.37000, 9.0
6.38000, 16.0
6.39000, 18.0
6.40000, 11.0
6.41000, 14.0
6.42000, 11.0
6.43000, 22.0
6.44000, 15.0
6.45000, 19.0
6.46000, 18.0
6.47000, 14.0
6.48000, 25.0
6.49000, 18.0
6.50000, 17.0
6.51000, 17.0
6.52000, 24.0
6.53000, 14.0
6.54000, 14.0
6.55000, 16.0
6.56000, 13.0
6.57000, 21.0
6.58000, 14.0
6.59000, 15.0
6.60000, 12.0
6.61000, 18.0
6.62000, 11.0
6.63000, 9.0
6.64000, 11.0
6.65000, 12.0
6.66000, 13.0
6.67000, 21.0
6.68000, 12.0
6.69000, 11.0
6.70000, 14.0
6.71000, 15.0
6.72000, 15.0
6.73000, 19.0
6.74000, 8.0
6.75000, 15.0
6.76000, 13.0
6.77000, 16.0
6.78000, 8.0
6.79000, 12.0
6.80000, 9.0
6.81000, 9.0
6.82000, 18.0
6.83000, 8.0
6.84000, 13.0
6.85000, 12.0
6.86000, 15.0
6.87000, 8.0
6.88000, 15.0
6.89000, 11.0
6.90000, 9.0
6.91000, 6.0
6.92000, 15.0
6.93000, 18.0
6.94000, 11.0
6.95000, 14.0
6.96000, 10.0
6.97000, 10.0
6.98000, 7.0
6.99000, 11.0
7.00000, 14.0
7.01000, 12.0
7.02000, 7.0
7.03000, 15.0
7.04000, 14.0
7.05000, 13.0
7.06000, 10.0
7.07000, 17.0
7.08000, 12.0
7.09000, 16.0
7.10000, 15.0
7.11000, 9.0
7.12000, 10.0
7.13000, 11.0
7.14000, 12.0
7.15000, 9.0
7.16000, 13.0
7.17000, 9.0
7.18000, 17.0
7.19000, 7.0
7.20000, 9.0
7.21000, 15.0
7.22000, 12.0
7.23000, 16.0
7.24000, 9.0
7.25000, 8.0
7.26000, 7.0
7.27000, 14.0
7.28000, 13.0
7.29000, 12.0
7.30000, 8.0
7.31000, 10.0
7.32000, 11.0
7.33000, 13.0
7.34000, 8.0
7.35000, 9.0
7.36000, 13.0
7.37000, 9.0
7.38000, 12.0
7.39000, 8.0
7.40000, 9.0
7.41000, 11.0
7.42000, 6.0
7.43000, 10.0
7.44000, 5.0
7.45000, 8.0
7.46000, 8.0
7.47000, 6.0
7.48000, 12.0
7.49000, 7.0
7.50000, 9.0
7.51000, 11.0
7.52000, 8.0
7.53000, 11.0
7.54000, 14.0
7.55000, 14.0
7.56000, 5.0
7.57000, 7.0
7.58000, 10.0
7.59000, 4.0
7.60000, 4.0
7.61000, 10.0
7.62000, 11.0
7.63000, 8.0
7.64000, 10.0
7.65000, 10.0
7.66000, 6.0
7.67000, 8.0
7.68000, 8.0
7.69000, 6.0
7.70000, 6.0
7.71000, 11.0
7.72000, 8.0
7.73000, 6.0
7.74000, 8.0
7.75000, 4.0
7.76000, 14.0
7.77000, 7.0
7.78000, 9.0
7.79000, 7.0
7.80000, 13.0
7.81000, 9.0
7.82000, 3.0
7.83000, 4.0
7.84000, 2.0
7.85000, 10.0
7.86000, 7.0
7.87000, 4.0
7.88000, 6.0
7.89000, 4.0
7.90000, 6.0
7.91000, 7.0
7.92000, 7.0
7.93000, 6.0
7.94000, 13.0
7.95000, 7.0
7.96000, 9.0
7.97000, 12.0
7.98000, 3.0
7.99000, 4.0
8.00000, 6.0
8.01000, 6.0
8.02000, 6.0
8.03000, 2.0
8.04000, 7.0
8.05000, 7.0
8.06000, 8.0
8.07000, 7.0
8.08000, 9.0
8.09000, 5.0
8.10000, 7.0
8.11000, 3.0
8.12000, 6.0
8.13000, 4.0
8.14000, 3.0
8.15000, 10.0
8.16000, 6.0
8.17000, 6.0
8.18000, 2.0
8.19000, 4.0
8.20000, 6.0
8.21000, 3.0
8.22000, 6.0
8.23000, 5.0
8.24000, 6.0
8.25000, 4.0
8.26000, 6.0
8.27000, 9.0
8.28000, 4.0
8.29000, 5.0
8.30000, 5.0
8.31000, 4.0
8.32000, 8.0
8.33000, 10.0
8.34000, 7.0
8.35000, 5.0
8.36000, 10.0
8.37000, 4.0
8.38000, 8.0
8.39000, 4.0
8.40000, 0.0
8.41000, 2.0
8.42000, 6.0
8.43000, 7.0
8.44000, 4.0
8.45000, 2.0
8.46000, 3.0
8.47000, 8.0
8.48000, 4.0
8.49000, 6.0
8.50000, 5.0
8.51000, 7.0
8.52000, 2.0
8.53000, 7.0
8.54000, 6.0
8.55000, 4.0
8.56000, 7.0
8.57000, 4.0
8.58000, 6.0
8.59000, 6.0
8.60000, 0.0
8.61000, 2.0
8.62000, 4.0
8.63000, 4.0
8.64000, 2.0
8.65000, 3.0
8.66000, 4.0
8.67000, 6.0
8.68000, 3.0
8.69000, 2.0
8.70000, 3.0
8.71000, 2.0
8.72000, 3.0
8.73000, 7.0
8.74000, 4.0
8.75000, 2.0
8.76000, 7.0
8.77000, 4.0
8.78000, 4.0
8.79000, 3.0
8.80000, 5.0
8.81000, 3.0
8.82000, 2.0
8.83000, 5.0
8.84000, 5.0
8.85000, 2.0
8.86000, 5.0
8.87000, 4.0
8.88000, 3.0
8.89000, 1.0
8.90000, 5.0
8.91000, 6.0
8.92000, 7.0
8.93000, 0.0
8.94000, 4.0
8.95000, 3.0
8.96000, 1.0
8.97000, 4.0
8.98000, 3.0
8.99000, 3.0
9.00000, 3.0
9.01000, 2.0
9.02000, 6.0
9.03000, 4.0
9.04000, 4.0
9.05000, 3.0
9.06000, 3.0
9.07000, 7.0
9.08000, 5.0
9.09000, 2.0
9.10000, 2.0
9.11000, 1.0
9.12000, 6.0
9.13000, 1.0
9.14000, 4.0
9.15000, 2.0
9.16000, 0.0
9.17000, 0.0
9.18000, 3.0
9.19000, 5.0
9.20000, 1.0
9.21000, 1.0
9.22000, 1.0
9.23000, 3.0
9.24000, 3.0
9.25000, 2.0
9.26000, 1.0
9.27000, 4.0
9.28000, 0.0
9.29000, 2.0
9.30000, 0.0
9.31000, 1.0
9.32000, 1.0
9.33000, 3.0
9.34000, 3.0
9.35000, 2.0
9.36000, 6.0
9.37000, 0.0
9.38000, 0.0
9.39000, 1.0
9.40000, 1.0
9.41000, 3.0
9.42000, 1.0
9.43000, 0.0
9.44000, 3.0
9.45000, 2.0
9.46000, 0.0
9.47000, 2.0
9.48000, 1.0
9.49000, 2.0
9.50000, 1.0
9.51000, 0.0
9.52000, 2.0
9.53000, 2.0
9.54000, 1.0
9.55000, 2.0
9.56000, 0.0
9.57000, 2.0
9.58000, 3.0
9.59000, 2.0
9.60000, 0.0
9.61000, 0.0
9.62000, 0.0
9.63000, 1.0
9.64000, 0.0
9.65000, 1.0
9.66000, 0.0
9.67000, 0.0
9.68000, 1.0
9.69000, 1.0
9.70000, 2.0
9.71000, 1.0
9.72000, 1.0
9.73000, 2.0
9.74000, 1.0
9.75000, 3.0
9.76000, 1.0
9.77000, 0.0
9.78000, 0.0
9.79000, 3.0
9.80000, 5.0
9.81000, 1.0
9.82000, 1.0
9.83000, 2.0
9.84000, 1.0
9.85000, 1.0
9.86000, 0.0
9.87000, 0.0
9.88000, 1.0
9.89000, 0.0
9.90000, 0.0
9.91000, 0.0
9.92000, 1.0
9.93000, 0.0
9.94000, 0.0
9.95000, 0.0
9.96000, 0.0
9.97000, 0.0
9.98000, 0.0
9.99000, 0.0
10.00000, 0.0
10.01000, 0.0
10.02000, 1.0
10.03000, 0.0
10.04000, 0.0
10.05000, 0.0
10.06000, 0.0
10.07000, 0.0
10.08000, 0.0
10.09000, 0.0
10.10000, 0.0
10.11000, 0.0
10.12000, 0.0
10.13000, 0.0
10.13500, 0.0
#ENDOFDATA   :