File: Spectras 20250424/20250425_10K_H12_1.txt
#FORMAT      : EMSA/MAS Spectral Data File
#VERSION     : 1.0
#TITLE       : 20250425_10K_H12_1
#DATE        : 24-APR-2025
#TIME        : 09:34
#OWNER       :
#NPOINTS     : 2048.0
#NCOLUMNS    : 1.0
#XUNITS      : keV
#YUNITS      : counts
#DATATYPE    : XY
#XPERCHAN    : 0.005
#OFFSET      : -0.1
#SIGNALTYPE  : EDS
#CHOFFSET    : 20.0
#LIVETIME    : 60.0
#REALTIME    : 61.4916
#BEAMKV      : 10.0
#MAGCAM      : 4000.0
#XTILTSTGE   : 0.0
#AZIMANGLE   : 0.0
#ELEVANGLE   : 29.0
#XPOSITION mm: 0.7570
#YPOSITION mm: 0.1853
#ZPOSITION mm: 13.4437
##OXINSTPT   : 2
##OXINSTSTROB: 67.53
##OXINSTELEMS: 42,16,14,8
##OXINSTLABEL: 42, 2.293, Mo
##OXINSTLABEL: 42, 2.395, Mo
##OXINSTLABEL: 42, 2.120, Mo
##OXINSTLABEL: 42, 2.831, Mo
##OXINSTLABEL: 42, 2.016, Mo
##OXINSTLABEL: 42, 0.193, Mo
##OXINSTLABEL: 16, 2.308, S
##OXINSTLABEL: 16, 2.464, S
##OXINSTLABEL: 14, 1.740, Si
##OXINSTLABEL: 8, 0.525, O
#SPECTRUM    : Spectral Data Starts Here
-0.10000, 0.0
-0.09000, 0.0
-0.08000, 0.0
-0.07000, 2.0
-0.06000, 3.0
-0.05000, 13.0
-0.04000, 34.0
-0.03000, 73.0
-0.02000, 134.0
-0.01000, 237.0
0.00000, 391.0
0.01000, 572.0
0.02000, 772.0
0.03000, 970.0
0.04000, 1011.0
0.05000, 1141.0
0.06000, 1007.0
0.07000, 923.0
0.08000, 635.0
0.09000, 506.0
0.10000, 370.0
0.11000, 290.0
0.12000, 293.0
0.13000, 297.0
0.14000, 333.0
0.15000, 357.0
0.16000, 421.0
0.17000, 432.0
0.18000, 399.0
0.19000, 327.0
0.20000, 307.0
0.21000, 313.0
0.22000, 271.0
0.23000, 310.0
0.24000, 319.0
0.25000, 393.0
0.26000, 446.0
0.27000, 434.0
0.28000, 469.0
0.29000, 404.0
0.30000, 339.0
0.31000, 252.0
0.32000, 202.0
0.33000, 133.0
0.34000, 110.0
0.35000, 100.0
0.36000, 77.0
0.37000, 90.0
0.38000, 83.0
0.39000, 91.0
0.40000, 108.0
0.41000, 93.0
0.42000, 99.0
0.43000, 136.0
0.44000, 165.0
0.45000, 229.0
0.46000, 309.0
0.47000, 473.0
0.48000, 625.0
0.49000, 837.0
0.50000, 1087.0
0.51000, 1209.0
0.52000, 1272.0
0.53000, 1238.0
0.54000, 1134.0
0.55000, 969.0
0.56000, 727.0
0.57000, 556.0
0.58000, 390.0
0.59000, 265.0
0.60000, 189.0
0.61000, 170.0
0.62000, 152.0
0.63000, 123.0
0.64000, 119.0
0.65000, 134.0
0.66000, 134.0
0.67000, 130.0
0.68000, 128.0
0.69000, 143.0
0.70000, 126.0
0.71000, 125.0
0.72000, 160.0
0.73000, 145.0
0.74000, 151.0
0.75000, 157.0
0.76000, 160.0
0.77000, 158.0
0.78000, 166.0
0.79000, 170.0
0.80000, 171.0
0.81000, 171.0
0.82000, 181.0
0.83000, 172.0
0.84000, 191.0
0.85000, 190.0
0.86000, 182.0
0.87000, 175.0
0.88000, 164.0
0.89000, 201.0
0.90000, 195.0
0.91000, 195.0
0.92000, 192.0
0.93000, 199.0
0.94000, 210.0
0.95000, 183.0
0.96000, 176.0
0.97000, 186.0
0.98000, 190.0
0.99000, 192.0
1.00000, 208.0
1.01000, 182.0
1.02000, 207.0
1.03000, 201.0
1.04000, 203.0
1.05000, 204.0
1.06000, 191.0
1.07000, 191.0
1.08000, 168.0
1.09000, 214.0
1.10000, 189.0
1.11000, 208.0
1.12000, 178.0
1.13000, 188.0
1.14000, 182.0
1.15000, 214.0
1.16000, 193.0
1.17000, 192.0
1.18000, 191.0
1.19000, 201.0
1.20000, 195.0
1.21000, 201.0
1.22000, 197.0
1.23000, 196.0
1.24000, 194.0
1.25000, 212.0
1.26000, 207.0
1.27000, 175.0
1.28000, 204.0
1.29000, 202.0
1.30000, 187.0
1.31000, 203.0
1.32000, 210.0
1.33000, 177.0
1.34000, 189.0
1.35000, 187.0
1.36000, 184.0
1.37000, 200.0
1.38000, 193.0
1.39000, 195.0
1.40000, 198.0
1.41000, 207.0
1.42000, 204.0
1.43000, 212.0
1.44000, 204.0
1.45000, 191.0
1.46000, 197.0
1.47000, 217.0
1.48000, 207.0
1.49000, 205.0
1.50000, 226.0
1.51000, 195.0
1.52000, 220.0
1.53000, 201.0
1.54000, 227.0
1.55000, 241.0
1.56000, 198.0
1.57000, 192.0
1.58000, 216.0
1.59000, 222.0
1.60000, 247.0
1.61000, 226.0
1.62000, 277.0
1.63000, 357.0
1.64000, 473.0
1.65000, 741.0
1.66000, 1141.0
1.67000, 1772.0
1.68000, 2517.0
1.69000, 3746.0
1.70000, 4807.0
1.71000, 5943.0
1.72000, 7138.0
1.73000, 7804.0
1.74000, 8282.0
1.75000, 8148.0
1.76000, 7695.0
1.77000, 6669.0
1.78000, 5569.0
1.79000, 4300.0
1.80000, 3202.0
1.81000, 2386.0
1.82000, 1734.0
1.83000, 1194.0
1.84000, 865.0
1.85000, 707.0
1.86000, 519.0
1.87000, 426.0
1.88000, 378.0
1.89000, 270.0
1.90000, 218.0
1.91000, 173.0
1.92000, 159.0
1.93000, 154.0
1.94000, 141.0
1.95000, 146.0
1.96000, 125.0
1.97000, 143.0
1.98000, 156.0
1.99000, 154.0
2.00000, 148.0
2.01000, 155.0
2.02000, 163.0
2.03000, 137.0
2.04000, 165.0
2.05000, 157.0
2.06000, 136.0
2.07000, 142.0
2.08000, 119.0
2.09000, 110.0
2.10000, 130.0
2.11000, 140.0
2.12000, 114.0
2.13000, 133.0
2.14000, 140.0
2.15000, 128.0
2.16000, 116.0
2.17000, 136.0
2.18000, 175.0
2.19000, 190.0
2.20000, 246.0
2.21000, 346.0
2.22000, 455.0
2.23000, 666.0
2.24000, 859.0
2.25000, 1162.0
2.26000, 1499.0
2.27000, 1730.0
2.28000, 2065.0
2.29000, 2243.0
2.30000, 2446.0
2.31000, 2466.0
2.32000, 2449.0
2.33000, 2270.0
2.34000, 1975.0
2.35000, 1774.0
2.36000, 1420.0
2.37000, 1239.0
2.38000, 945.0
2.39000, 899.0
2.40000, 784.0
2.41000, 629.0
2.42000, 596.0
2.43000, 496.0
2.44000, 482.0
2.45000, 460.0
2.46000, 422.0
2.47000, 356.0
2.48000, 336.0
2.49000, 313.0
2.50000, 277.0
2.51000, 248.0
2.52000, 214.0
2.53000, 189.0
2.54000, 156.0
2.55000, 157.0
2.56000, 116.0
2.57000, 122.0
2.58000, 112.0
2.59000, 109.0
2.60000, 118.0
2.61000, 93.0
2.62000, 101.0
2.63000, 99.0
2.64000, 92.0
2.65000, 88.0
2.66000, 91.0
2.67000, 84.0
2.68000, 85.0
2.69000, 77.0
2.70000, 82.0
2.71000, 86.0
2.72000, 80.0
2.73000, 70.0
2.74000, 77.0
2.75000, 73.0
2.76000, 85.0
2.77000, 81.0
2.78000, 63.0
2.79000, 78.0
2.80000, 76.0
2.81000, 101.0
2.82000, 87.0
2.83000, 73.0
2.84000, 81.0
2.85000, 76.0
2.86000, 76.0
2.87000, 74.0
2.88000, 71.0
2.89000, 69.0
2.90000, 85.0
2.91000, 78.0
2.92000, 70.0
2.93000, 76.0
2.94000, 74.0
2.95000, 69.0
2.96000, 75.0
2.97000, 69.0
2.98000, 74.0
2.99000, 70.0
3.00000, 62.0
3.01000, 81.0
3.02000, 77.0
3.03000, 54.0
3.04000, 59.0
3.05000, 67.0
3.06000, 61.0
3.07000, 61.0
3.08000, 63.0
3.09000, 77.0
3.10000, 76.0
3.11000, 70.0
3.12000, 62.0
3.13000, 65.0
3.14000, 78.0
3.15000, 63.0
3.16000, 64.0
3.17000, 59.0
3.18000, 58.0
3.19000, 65.0
3.20000, 64.0
3.21000, 60.0
3.22000, 48.0
3.23000, 59.0
3.24000, 67.0
3.25000, 68.0
3.26000, 56.0
3.27000, 77.0
3.28000, 70.0
3.29000, 56.0
3.30000, 68.0
3.31000, 54.0
3.32000, 72.0
3.33000, 56.0
3.34000, 66.0
3.35000, 61.0
3.36000, 79.0
3.37000, 60.0
3.38000, 62.0
3.39000, 45.0
3.40000, 58.0
3.41000, 58.0
3.42000, 62.0
3.43000, 56.0
3.44000, 68.0
3.45000, 61.0
3.46000, 77.0
3.47000, 65.0
3.48000, 65.0
3.49000, 71.0
3.50000, 68.0
3.51000, 69.0
3.52000, 63.0
3.53000, 69.0
3.54000, 62.0
3.55000, 63.0
3.56000, 73.0
3.57000, 53.0
3.58000, 59.0
3.59000, 65.0
3.60000, 48.0
3.61000, 70.0
3.62000, 51.0
3.63000, 55.0
3.64000, 63.0
3.65000, 60.0
3.66000, 55.0
3.67000, 46.0
3.68000, 61.0
3.69000, 48.0
3.70000, 51.0
3.71000, 56.0
3.72000, 52.0
3.73000, 64.0
3.74000, 55.0
3.75000, 60.0
3.76000, 47.0
3.77000, 49.0
3.78000, 46.0
3.79000, 56.0
3.80000, 44.0
3.81000, 48.0
3.82000, 55.0
3.83000, 46.0
3.84000, 55.0
3.85000, 59.0
3.86000, 44.0
3.87000, 57.0
3.88000, 47.0
3.89000, 54.0
3.90000, 49.0
3.91000, 51.0
3.92000, 40.0
3.93000, 48.0
3.94000, 54.0
3.95000, 36.0
3.96000, 56.0
3.97000, 40.0
3.98000, 44.0
3.99000, 41.0
4.00000, 39.0
4.01000, 44.0
4.02000, 55.0
4.03000, 51.0
4.04000, 44.0
4.05000, 47.0
4.06000, 52.0
4.07000, 56.0
4.08000, 45.0
4.09000, 46.0
4.10000, 47.0
4.11000, 45.0
4.12000, 53.0
4.13000, 54.0
4.14000, 47.0
4.15000, 40.0
4.16000, 39.0
4.17000, 46.0
4.18000, 59.0
4.19000, 42.0
4.20000, 48.0
4.21000, 32.0
4.22000, 45.0
4.23000, 45.0
4.24000, 37.0
4.25000, 54.0
4.26000, 42.0
4.27000, 40.0
4.28000, 43.0
4.29000, 43.0
4.30000, 48.0
4.31000, 38.0
4.32000, 40.0
4.33000, 43.0
4.34000, 37.0
4.35000, 45.0
4.36000, 37.0
4.37000, 46.0
4.38000, 34.0
4.39000, 48.0
4.40000, 33.0
4.41000, 37.0
4.42000, 42.0
4.43000, 51.0
4.44000, 41.0
4.45000, 36.0
4.46000, 35.0
4.47000, 27.0
4.48000, 41.0
4.49000, 44.0
4.50000, 39.0
4.51000, 45.0
4.52000, 44.0
4.53000, 36.0
4.54000, 36.0
4.55000, 40.0
4.56000, 40.0
4.57000, 36.0
4.58000, 38.0
4.59000, 41.0
4.60000, 51.0
4.61000, 33.0
4.62000, 34.0
4.63000, 33.0
4.64000, 38.0
4.65000, 44.0
4.66000, 53.0
4.67000, 34.0
4.68000, 36.0
4.69000, 33.0
4.70000, 26.0
4.71000, 40.0
4.72000, 35.0
4.73000, 33.0
4.74000, 37.0
4.75000, 36.0
4.76000, 44.0
4.77000, 30.0
4.78000, 40.0
4.79000, 35.0
4.80000, 36.0
4.81000, 28.0
4.82000, 30.0
4.83000, 32.0
4.84000, 28.0
4.85000, 33.0
4.86000, 32.0
4.87000, 33.0
4.88000, 40.0
4.89000, 38.0
4.90000, 32.0
4.91000, 33.0
4.92000, 35.0
4.93000, 30.0
4.94000, 35.0
4.95000, 43.0
4.96000, 37.0
4.97000, 33.0
4.98000, 34.0
4.99000, 29.0
5.00000, 26.0
5.01000, 23.0
5.02000, 28.0
5.03000, 33.0
5.04000, 34.0
5.05000, 36.0
5.06000, 30.0
5.07000, 40.0
5.08000, 32.0
5.09000, 39.0
5.10000, 26.0
5.11000, 27.0
5.12000, 28.0
5.13000, 32.0
5.14000, 32.0
5.15000, 32.0
5.16000, 30.0
5.17000, 24.0
5.18000, 30.0
5.19000, 26.0
5.20000, 38.0
5.21000, 32.0
5.22000, 24.0
5.23000, 25.0
5.24000, 22.0
5.25000, 35.0
5.26000, 39.0
5.27000, 29.0
5.28000, 37.0
5.29000, 30.0
5.30000, 31.0
5.31000, 30.0
5.32000, 32.0
5.33000, 31.0
5.34000, 31.0
5.35000, 25.0
5.36000, 33.0
5.37000, 26.0
5.38000, 25.0
5.39000, 25.0
5.40000, 36.0
5.41000, 26.0
5.42000, 25.0
5.43000, 32.0
5.44000, 35.0
5.45000, 26.0
5.46000, 26.0
5.47000, 22.0
5.48000, 25.0
5.49000, 32.0
5.50000, 26.0
5.51000, 29.0
5.52000, 28.0
5.53000, 29.0
5.54000, 21.0
5.55000, 28.0
5.56000, 29.0
5.57000, 34.0
5.58000, 24.0
5.59000, 25.0
5.60000, 24.0
5.61000, 26.0
5.62000, 25.0
5.63000, 21.0
5.64000, 29.0
5.65000, 20.0
5.66000, 20.0
5.67000, 29.0
5.68000, 24.0
5.69000, 25.0
5.70000, 34.0
5.71000, 17.0
5.72000, 29.0
5.73000, 22.0
5.74000, 22.0
5.75000, 33.0
5.76000, 32.0
5.77000, 22.0
5.78000, 22.0
5.79000, 28.0
5.80000, 24.0
5.81000, 24.0
5.82000, 25.0
5.83000, 20.0
5.84000, 25.0
5.85000, 18.0
5.86000, 19.0
5.87000, 18.0
5.88000, 25.0
5.89000, 29.0
5.90000, 12.0
5.91000, 19.0
5.92000, 21.0
5.93000, 22.0
5.94000, 20.0
5.95000, 19.0
5.96000, 23.0
5.97000, 26.0
5.98000, 19.0
5.99000, 23.0
6.00000, 24.0
6.01000, 23.0
6.02000, 18.0
6.03000, 19.0
6.04000, 22.0
6.05000, 27.0
6.06000, 24.0
6.07000, 18.0
6.08000, 22.0
6.09000, 16.0
6.10000, 20.0
6.11000, 23.0
6.12000, 20.0
6.13000, 15.0
6.14000, 22.0
6.15000, 26.0
6.16000, 25.0
6.17000, 20.0
6.18000, 25.0
6.19000, 22.0
6.20000, 18.0
6.21000, 30.0
6.22000, 17.0
6.23000, 22.0
6.24000, 14.0
6.25000, 21.0
6.26000, 20.0
6.27000, 16.0
6.28000, 13.0
6.29000, 20.0
6.30000, 30.0
6.31000, 18.0
6.32000, 17.0
6.33000, 14.0
6.34000, 16.0
6.35000, 22.0
6.36000, 19.0
6.37000, 15.0
6.38000, 21.0
6.39000, 16.0
6.40000, 24.0
6.41000, 22.0
6.42000, 26.0
6.43000, 19.0
6.44000, 20.0
6.45000, 12.0
6.46000, 16.0
6.47000, 22.0
6.48000, 17.0
6.49000, 12.0
6.50000, 21.0
6.51000, 8.0
6.52000, 21.0
6.53000, 22.0
6.54000, 24.0
6.55000, 17.0
6.56000, 24.0
6.57000, 15.0
6.58000, 21.0
6.59000, 23.0
6.60000, 15.0
6.61000, 15.0
6.62000, 11.0
6.63000, 21.0
6.64000, 16.0
6.65000, 22.0
6.66000, 17.0
6.67000, 23.0
6.68000, 22.0
6.69000, 8.0
6.70000, 21.0
6.71000, 18.0
6.72000, 12.0
6.73000, 10.0
6.74000, 13.0
6.75000, 14.0
6.76000, 21.0
6.77000, 13.0
6.78000, 19.0
6.79000, 17.0
6.80000, 26.0
6.81000, 12.0
6.82000, 17.0
6.83000, 14.0
6.84000, 12.0
6.85000, 17.0
6.86000, 22.0
6.87000, 13.0
6.88000, 13.0
6.89000, 15.0
6.90000, 13.0
6.91000, 10.0
6.92000, 11.0
6.93000, 11.0
6.94000, 16.0
6.95000, 20.0
6.96000, 15.0
6.97000, 13.0
6.98000, 14.0
6.99000, 19.0
7.00000, 11.0
7.01000, 14.0
7.02000, 12.0
7.03000, 19.0
7.04000, 13.0
7.05000, 12.0
7.06000, 26.0
7.07000, 13.0
7.08000, 22.0
7.09000, 17.0
7.10000, 9.0
7.11000, 19.0
7.12000, 10.0
7.13000, 8.0
7.14000, 11.0
7.15000, 14.0
7.16000, 18.0
7.17000, 12.0
7.18000, 16.0
7.19000, 19.0
7.20000, 13.0
7.21000, 14.0
7.22000, 10.0
7.23000, 18.0
7.24000, 19.0
7.25000, 17.0
7.26000, 5.0
7.27000, 17.0
7.28000, 14.0
7.29000, 20.0
7.30000, 15.0
7.31000, 15.0
7.32000, 9.0
7.33000, 20.0
7.34000, 8.0
7.35000, 7.0
7.36000, 18.0
7.37000, 18.0
7.38000, 10.0
7.39000, 16.0
7.40000, 16.0
7.41000, 18.0
7.42000, 14.0
7.43000, 15.0
7.44000, 14.0
7.45000, 13.0
7.46000, 11.0
7.47000, 13.0
7.48000, 14.0
7.49000, 11.0
7.50000, 16.0
7.51000, 16.0
7.52000, 17.0
7.53000, 18.0
7.54000, 15.0
7.55000, 19.0
7.56000, 13.0
7.57000, 9.0
7.58000, 14.0
7.59000, 5.0
7.60000, 6.0
7.61000, 12.0
7.62000, 12.0
7.63000, 13.0
7.64000, 11.0
7.65000, 21.0
7.66000, 11.0
7.67000, 9.0
7.68000, 14.0
7.69000, 15.0
7.70000, 8.0
7.71000, 12.0
7.72000, 12.0
7.73000, 21.0
7.74000, 16.0
7.75000, 11.0
7.76000, 12.0
7.77000, 17.0
7.78000, 15.0
7.79000, 17.0
7.80000, 8.0
7.81000, 10.0
7.82000, 14.0
7.83000, 12.0
7.84000, 12.0
7.85000, 9.0
7.86000, 10.0
7.87000, 17.0
7.88000, 14.0
7.89000, 9.0
7.90000, 14.0
7.91000, 13.0
7.92000, 12.0
7.93000, 8.0
7.94000, 9.0
7.95000, 15.0
7.96000, 8.0
7.97000, 12.0
7.98000, 11.0
7.99000, 8.0
8.00000, 9.0
8.01000, 6.0
8.02000, 2.0
8.03000, 15.0
8.04000, 12.0
8.05000, 9.0
8.06000, 14.0
8.07000, 11.0
8.08000, 15.0
8.09000, 11.0
8.10000, 8.0
8.11000, 12.0
8.12000, 11.0
8.13000, 9.0
8.14000, 7.0
8.15000, 17.0
8.16000, 9.0
8.17000, 13.0
8.18000, 7.0
8.19000, 7.0
8.20000, 5.0
8.21000, 12.0
8.22000, 8.0
8.23000, 8.0
8.24000, 10.0
8.25000, 10.0
8.26000, 12.0
8.27000, 9.0
8.28000, 7.0
8.29000, 10.0
8.30000, 9.0
8.31000, 5.0
8.32000, 9.0
8.33000, 11.0
8.34000, 13.0
8.35000, 9.0
8.36000, 13.0
8.37000, 7.0
8.38000, 5.0
8.39000, 7.0
8.40000, 8.0
8.41000, 5.0
8.42000, 7.0
8.43000, 5.0
8.44000, 7.0
8.45000, 9.0
8.46000, 8.0
8.47000, 8.0
8.48000, 7.0
8.49000, 1.0
8.50000, 10.0
8.51000, 9.0
8.52000, 8.0
8.53000, 10.0
8.54000, 4.0
8.55000, 9.0
8.56000, 10.0
8.57000, 6.0
8.58000, 12.0
8.59000, 9.0
8.60000, 5.0
8.61000, 10.0
8.62000, 6.0
8.63000, 9.0
8.64000, 5.0
8.65000, 15.0
8.66000, 4.0
8.67000, 6.0
8.68000, 6.0
8.69000, 4.0
8.70000, 6.0
8.71000, 9.0
8.72000, 6.0
8.73000, 4.0
8.74000, 9.0
8.75000, 7.0
8.76000, 7.0
8.77000, 5.0
8.78000, 9.0
8.79000, 6.0
8.80000, 6.0
8.81000, 6.0
8.82000, 4.0
8.83000, 9.0
8.84000, 7.0
8.85000, 8.0
8.86000, 7.0
8.87000, 5.0
8.88000, 3.0
8.89000, 5.0
8.90000, 3.0
8.91000, 5.0
8.92000, 9.0
8.93000, 8.0
8.94000, 5.0
8.95000, 7.0
8.96000, 6.0
8.97000, 7.0
8.98000, 3.0
8.99000, 4.0
9.00000, 3.0
9.01000, 6.0
9.02000, 3.0
9.03000, 0.0
9.04000, 9.0
9.05000, 6.0
9.06000, 3.0
9.07000, 5.0
9.08000, 10.0
9.09000, 3.0
9.10000, 4.0
9.11000, 6.0
9.12000, 6.0
9.13000, 9.0
9.14000, 1.0
9.15000, 6.0
9.16000, 4.0
9.17000, 5.0
9.18000, 2.0
9.19000, 7.0
9.20000, 1.0
9.21000, 1.0
9.22000, 8.0
9.23000, 8.0
9.24000, 5.0
9.25000, 5.0
9.26000, 7.0
9.27000, 8.0
9.28000, 4.0
9.29000, 7.0
9.30000, 9.0
9.31000, 7.0
9.32000, 5.0
9.33000, 3.0
9.34000, 4.0
9.35000, 8.0
9.36000, 6.0
9.37000, 3.0
9.38000, 4.0
9.39000, 6.0
9.40000, 5.0
9.41000, 4.0
9.42000, 3.0
9.43000, 4.0
9.44000, 5.0
9.45000, 4.0
9.46000, 9.0
9.47000, 2.0
9.48000, 7.0
9.49000, 2.0
9.50000, 1.0
9.51000, 5.0
9.52000, 6.0
9.53000, 8.0
9.54000, 2.0
9.55000, 7.0
9.56000, 1.0
9.57000, 0.0
9.58000, 3.0
9.59000, 4.0
9.60000, 3.0
9.61000, 3.0
9.62000, 3.0
9.63000, 1.0
9.64000, 4.0
9.65000, 4.0
9.66000, 1.0
9.67000, 4.0
9.68000, 1.0
9.69000, 5.0
9.70000, 5.0
9.71000, 1.0
9.72000, 3.0
9.73000, 6.0
9.74000, 4.0
9.75000, 6.0
9.76000, 2.0
9.77000, 2.0
9.78000, 0.0
9.79000, 3.0
9.80000, 3.0
9.81000, 2.0
9.82000, 2.0
9.83000, 1.0
9.84000, 5.0
9.85000, 2.0
9.86000, 2.0
9.87000, 4.0
9.88000, 2.0
9.89000, 6.0
9.90000, 1.0
9.91000, 2.0
9.92000, 0.0
9.93000, 1.0
9.94000, 2.0
9.95000, 0.0
9.96000, 2.0
9.97000, 0.0
9.98000, 2.0
9.99000, 1.0
10.00000, 2.0
10.01000, 1.0
10.02000, 0.0
10.03000, 1.0
10.04000, 1.0
10.05000, 0.0
10.06000, 0.0
10.07000, 0.0
10.08000, 1.0
10.09000, 0.0
10.10000, 2.0
10.11000, 0.0
10.12000, 0.0
10.13000, 0.0
10.13500, 0.0
#ENDOFDATA   :