File: spectrums WS2 30keV/A11_30keV_300924_A2_2.txt
#FORMAT      : EMSA/MAS Spectral Data File
#VERSION     : 1.0
#TITLE       : A11_10keV_300924_A2_2
#DATE        : 30-SEP-2024
#TIME        : 15:19
#OWNER       :
#NPOINTS     : 2048.0
#NCOLUMNS    : 1.0
#XUNITS      : keV
#YUNITS      : counts
#DATATYPE    : XY
#XPERCHAN    : 0.02
#OFFSET      : -0.4
#SIGNALTYPE  : EDS
#CHOFFSET    : 20.0
#LIVETIME    : 60.1419
#REALTIME    : 74.7095
#BEAMKV      : 30.0
#MAGCAM      : 16000.0
#XTILTSTGE   : 0.0
#AZIMANGLE   : 0.0
#ELEVANGLE   : 25.5
#XPOSITION mm: 2.4258
#YPOSITION mm: -0.8530
#ZPOSITION mm: 12.8688
##OXINSTPT   : 2
##OXINSTSTROB: 74.68
##OXINSTELEMS: 30,8,16
##OXINSTLABEL: 30, 8.639, Zn K?1
##OXINSTLABEL: 30, 9.572, Zn K?1
##OXINSTLABEL: 30, 1.012, Zn L?1,2
##OXINSTLABEL: 30, 0.906, Zn L?
##OXINSTLABEL: 30, 0.884, Zn Ll
##OXINSTLABEL: 8, 0.525, O K?1
##OXINSTLABEL: 16, 2.308, S K?1
##OXINSTLABEL: 16, 2.464, S K?1
#SPECTRUM    : Spectral Data Starts Here
-0.40000, 0.0
-0.36000, 0.0
-0.32000, 0.0
-0.28000, 0.0
-0.24000, 0.0
-0.20000, 0.0
-0.16000, 0.0
-0.12000, 0.0
-0.08000, 6.0
-0.04000, 216.0
0.00000, 1381.0
0.04000, 2803.0
0.08000, 1962.0
0.12000, 826.0
0.16000, 674.0
0.20000, 683.0
0.24000, 888.0
0.28000, 1018.0
0.32000, 643.0
0.36000, 452.0
0.40000, 583.0
0.44000, 1598.0
0.48000, 6335.0
0.52000, 10831.0
0.56000, 6760.0
0.60000, 1890.0
0.64000, 694.0
0.68000, 707.0
0.72000, 754.0
0.76000, 847.0
0.80000, 1009.0
0.84000, 1106.0
0.88000, 1240.0
0.92000, 1335.0
0.96000, 1557.0
1.00000, 1644.0
1.04000, 1810.0
1.08000, 1912.0
1.12000, 2110.0
1.16000, 2294.0
1.20000, 2332.0
1.24000, 2559.0
1.28000, 2824.0
1.32000, 3085.0
1.36000, 3514.0
1.40000, 3919.0
1.44000, 4161.0
1.48000, 4620.0
1.52000, 5134.0
1.56000, 5724.0
1.60000, 8110.0
1.64000, 38567.0
1.68000, 196614.0
1.72000, 471308.0
1.76000, 497949.0
1.80000, 242805.0
1.84000, 68876.0
1.88000, 18586.0
1.92000, 4630.0
1.96000, 1236.0
2.00000, 897.0
2.04000, 864.0
2.08000, 814.0
2.12000, 754.0
2.16000, 789.0
2.20000, 1051.0
2.24000, 1978.0
2.28000, 3576.0
2.32000, 4057.0
2.36000, 2748.0
2.40000, 1523.0
2.44000, 1153.0
2.48000, 1058.0
2.52000, 1006.0
2.56000, 948.0
2.60000, 921.0
2.64000, 927.0
2.68000, 943.0
2.72000, 942.0
2.76000, 1027.0
2.80000, 1002.0
2.84000, 1020.0
2.88000, 1034.0
2.92000, 1059.0
2.96000, 1111.0
3.00000, 1150.0
3.04000, 1133.0
3.08000, 1200.0
3.12000, 1234.0
3.16000, 1229.0
3.20000, 1257.0
3.24000, 1260.0
3.28000, 1283.0
3.32000, 1360.0
3.36000, 1858.0
3.40000, 3797.0
3.44000, 8033.0
3.48000, 11161.0
3.52000, 9578.0
3.56000, 5455.0
3.60000, 2872.0
3.64000, 1665.0
3.68000, 1290.0
3.72000, 1214.0
3.76000, 1137.0
3.80000, 1187.0
3.84000, 1131.0
3.88000, 1140.0
3.92000, 1180.0
3.96000, 1215.0
4.00000, 1283.0
4.04000, 1320.0
4.08000, 1231.0
4.12000, 1220.0
4.16000, 1169.0
4.20000, 1173.0
4.24000, 1139.0
4.28000, 1157.0
4.32000, 1150.0
4.36000, 1201.0
4.40000, 1149.0
4.44000, 1203.0
4.48000, 1161.0
4.52000, 1179.0
4.56000, 1164.0
4.60000, 1202.0
4.64000, 1166.0
4.68000, 1169.0
4.72000, 1111.0
4.76000, 1128.0
4.80000, 1156.0
4.84000, 1140.0
4.88000, 1121.0
4.92000, 1094.0
4.96000, 1142.0
5.00000, 1084.0
5.04000, 1114.0
5.08000, 1134.0
5.12000, 1148.0
5.16000, 1237.0
5.20000, 1280.0
5.24000, 1243.0
5.28000, 1179.0
5.32000, 1154.0
5.36000, 1133.0
5.40000, 1081.0
5.44000, 1095.0
5.48000, 1061.0
5.52000, 1051.0
5.56000, 1042.0
5.60000, 1021.0
5.64000, 1035.0
5.68000, 1045.0
5.72000, 1072.0
5.76000, 1050.0
5.80000, 999.0
5.84000, 1025.0
5.88000, 1001.0
5.92000, 985.0
5.96000, 1036.0
6.00000, 988.0
6.04000, 964.0
6.08000, 998.0
6.12000, 982.0
6.16000, 926.0
6.20000, 975.0
6.24000, 936.0
6.28000, 932.0
6.32000, 948.0
6.36000, 930.0
6.40000, 938.0
6.44000, 950.0
6.48000, 904.0
6.52000, 921.0
6.56000, 902.0
6.60000, 887.0
6.64000, 902.0
6.68000, 928.0
6.72000, 893.0
6.76000, 878.0
6.80000, 874.0
6.84000, 888.0
6.88000, 870.0
6.92000, 852.0
6.96000, 882.0
7.00000, 835.0
7.04000, 863.0
7.08000, 848.0
7.12000, 827.0
7.16000, 845.0
7.20000, 840.0
7.24000, 790.0
7.28000, 830.0
7.32000, 838.0
7.36000, 818.0
7.40000, 817.0
7.44000, 782.0
7.48000, 838.0
7.52000, 786.0
7.56000, 797.0
7.60000, 742.0
7.64000, 757.0
7.68000, 740.0
7.72000, 727.0
7.76000, 757.0
7.80000, 766.0
7.84000, 725.0
7.88000, 717.0
7.92000, 727.0
7.96000, 736.0
8.00000, 750.0
8.04000, 729.0
8.08000, 707.0
8.12000, 729.0
8.16000, 713.0
8.20000, 726.0
8.24000, 833.0
8.28000, 945.0
8.32000, 1116.0
8.36000, 1351.0
8.40000, 1430.0
8.44000, 1291.0
8.48000, 1014.0
8.52000, 836.0
8.56000, 701.0
8.60000, 668.0
8.64000, 671.0
8.68000, 676.0
8.72000, 640.0
8.76000, 638.0
8.80000, 651.0
8.84000, 611.0
8.88000, 618.0
8.92000, 634.0
8.96000, 642.0
9.00000, 618.0
9.04000, 610.0
9.08000, 608.0
9.12000, 600.0
9.16000, 577.0
9.20000, 584.0
9.24000, 584.0
9.28000, 581.0
9.32000, 581.0
9.36000, 577.0
9.40000, 615.0
9.44000, 590.0
9.48000, 647.0
9.52000, 647.0
9.56000, 722.0
9.60000, 772.0
9.64000, 827.0
9.68000, 837.0
9.72000, 797.0
9.76000, 734.0
9.80000, 640.0
9.84000, 644.0
9.88000, 620.0
9.92000, 667.0
9.96000, 664.0
10.00000, 667.0
10.04000, 619.0
10.08000, 573.0
10.12000, 553.0
10.16000, 575.0
10.20000, 513.0
10.24000, 506.0
10.28000, 497.0
10.32000, 509.0
10.36000, 466.0
10.40000, 480.0
10.44000, 476.0
10.48000, 490.0
10.52000, 497.0
10.56000, 454.0
10.60000, 412.0
10.64000, 451.0
10.68000, 448.0
10.72000, 464.0
10.76000, 452.0
10.80000, 441.0
10.84000, 438.0
10.88000, 459.0
10.92000, 469.0
10.96000, 413.0
11.00000, 436.0
11.04000, 435.0
11.08000, 404.0
11.12000, 444.0
11.16000, 431.0
11.20000, 466.0
11.24000, 462.0
11.28000, 478.0
11.32000, 458.0
11.36000, 445.0
11.40000, 432.0
11.44000, 445.0
11.48000, 419.0
11.52000, 417.0
11.56000, 399.0
11.60000, 391.0
11.64000, 396.0
11.68000, 390.0
11.72000, 389.0
11.76000, 419.0
11.80000, 363.0
11.84000, 368.0
11.88000, 384.0
11.92000, 369.0
11.96000, 360.0
12.00000, 345.0
12.04000, 354.0
12.08000, 375.0
12.12000, 359.0
12.16000, 336.0
12.20000, 347.0
12.24000, 333.0
12.28000, 335.0
12.32000, 337.0
12.36000, 359.0
12.40000, 329.0
12.44000, 319.0
12.48000, 328.0
12.52000, 344.0
12.56000, 305.0
12.60000, 303.0
12.64000, 288.0
12.68000, 307.0
12.72000, 303.0
12.76000, 328.0
12.80000, 304.0
12.84000, 286.0
12.88000, 313.0
12.92000, 285.0
12.96000, 276.0
13.00000, 301.0
13.04000, 270.0
13.08000, 287.0
13.12000, 286.0
13.16000, 281.0
13.20000, 277.0
13.24000, 278.0
13.28000, 280.0
13.32000, 269.0
13.36000, 281.0
13.40000, 273.0
13.44000, 272.0
13.48000, 253.0
13.52000, 261.0
13.56000, 261.0
13.60000, 240.0
13.64000, 245.0
13.68000, 251.0
13.72000, 242.0
13.76000, 249.0
13.80000, 243.0
13.84000, 237.0
13.88000, 256.0
13.92000, 233.0
13.96000, 216.0
14.00000, 240.0
14.04000, 222.0
14.08000, 223.0
14.12000, 226.0
14.16000, 220.0
14.20000, 229.0
14.24000, 219.0
14.28000, 215.0
14.32000, 225.0
14.36000, 215.0
14.40000, 233.0
14.44000, 207.0
14.48000, 194.0
14.52000, 185.0
14.56000, 184.0
14.60000, 194.0
14.64000, 217.0
14.68000, 188.0
14.72000, 190.0
14.76000, 195.0
14.80000, 212.0
14.84000, 180.0
14.88000, 167.0
14.92000, 199.0
14.96000, 188.0
15.00000, 197.0
15.04000, 184.0
15.08000, 185.0
15.12000, 188.0
15.16000, 174.0
15.20000, 178.0
15.24000, 180.0
15.28000, 170.0
15.32000, 182.0
15.36000, 172.0
15.40000, 170.0
15.44000, 161.0
15.48000, 164.0
15.52000, 160.0
15.56000, 179.0
15.60000, 151.0
15.64000, 158.0
15.68000, 166.0
15.72000, 157.0
15.76000, 147.0
15.80000, 148.0
15.84000, 148.0
15.88000, 130.0
15.92000, 136.0
15.96000, 149.0
16.00000, 133.0
16.04000, 162.0
16.08000, 127.0
16.12000, 148.0
16.16000, 138.0
16.20000, 150.0
16.24000, 121.0
16.28000, 133.0
16.32000, 132.0
16.36000, 134.0
16.40000, 127.0
16.44000, 130.0
16.48000, 143.0
16.52000, 130.0
16.56000, 137.0
16.60000, 132.0
16.64000, 129.0
16.68000, 124.0
16.72000, 120.0
16.76000, 118.0
16.80000, 104.0
16.84000, 107.0
16.88000, 113.0
16.92000, 101.0
16.96000, 110.0
17.00000, 101.0
17.04000, 96.0
17.08000, 113.0
17.12000, 97.0
17.16000, 103.0
17.20000, 108.0
17.24000, 109.0
17.28000, 95.0
17.32000, 100.0
17.36000, 106.0
17.40000, 101.0
17.44000, 109.0
17.48000, 92.0
17.52000, 95.0
17.56000, 100.0
17.60000, 99.0
17.64000, 81.0
17.68000, 87.0
17.72000, 85.0
17.76000, 78.0
17.80000, 91.0
17.84000, 86.0
17.88000, 92.0
17.92000, 83.0
17.96000, 93.0
18.00000, 90.0
18.04000, 78.0
18.08000, 76.0
18.12000, 94.0
18.16000, 66.0
18.20000, 81.0
18.24000, 75.0
18.28000, 89.0
18.32000, 86.0
18.36000, 73.0
18.40000, 73.0
18.44000, 88.0
18.48000, 71.0
18.52000, 85.0
18.56000, 62.0
18.60000, 78.0
18.64000, 79.0
18.68000, 75.0
18.72000, 69.0
18.76000, 74.0
18.80000, 65.0
18.84000, 70.0
18.88000, 64.0
18.92000, 64.0
18.96000, 68.0
19.00000, 69.0
19.04000, 73.0
19.08000, 68.0
19.12000, 68.0
19.16000, 60.0
19.20000, 55.0
19.24000, 70.0
19.28000, 61.0
19.32000, 70.0
19.36000, 61.0
19.40000, 58.0
19.44000, 57.0
19.48000, 61.0
19.52000, 53.0
19.56000, 50.0
19.60000, 55.0
19.64000, 52.0
19.68000, 52.0
19.72000, 50.0
19.76000, 57.0
19.80000, 57.0
19.84000, 55.0
19.88000, 54.0
19.92000, 55.0
19.96000, 52.0
20.00000, 42.0
20.04000, 48.0
20.08000, 51.0
20.12000, 58.0
20.16000, 43.0
20.20000, 57.0
20.24000, 50.0
20.28000, 49.0
20.32000, 44.0
20.36000, 43.0
20.40000, 46.0
20.44000, 58.0
20.48000, 44.0
20.52000, 44.0
20.56000, 42.0
20.60000, 37.0
20.64000, 45.0
20.68000, 49.0
20.72000, 48.0
20.76000, 40.0
20.80000, 37.0
20.84000, 39.0
20.88000, 39.0
20.92000, 48.0
20.96000, 38.0
21.00000, 34.0
21.04000, 36.0
21.08000, 29.0
21.12000, 35.0
21.16000, 40.0
21.20000, 39.0
21.24000, 33.0
21.28000, 41.0
21.32000, 41.0
21.36000, 36.0
21.40000, 29.0
21.44000, 30.0
21.48000, 35.0
21.52000, 35.0
21.56000, 35.0
21.60000, 25.0
21.64000, 30.0
21.68000, 33.0
21.72000, 31.0
21.76000, 31.0
21.80000, 32.0
21.84000, 36.0
21.88000, 32.0
21.92000, 37.0
21.96000, 31.0
22.00000, 34.0
22.04000, 23.0
22.08000, 33.0
22.12000, 32.0
22.16000, 23.0
22.20000, 23.0
22.24000, 24.0
22.28000, 27.0
22.32000, 21.0
22.36000, 26.0
22.40000, 32.0
22.44000, 24.0
22.48000, 21.0
22.52000, 26.0
22.56000, 29.0
22.60000, 26.0
22.64000, 25.0
22.68000, 28.0
22.72000, 26.0
22.76000, 23.0
22.80000, 23.0
22.84000, 26.0
22.88000, 26.0
22.92000, 22.0
22.96000, 21.0
23.00000, 29.0
23.04000, 23.0
23.08000, 20.0
23.12000, 20.0
23.16000, 26.0
23.20000, 24.0
23.24000, 25.0
23.28000, 23.0
23.32000, 20.0
23.36000, 20.0
23.40000, 19.0
23.44000, 20.0
23.48000, 15.0
23.52000, 22.0
23.56000, 17.0
23.60000, 20.0
23.64000, 18.0
23.68000, 19.0
23.72000, 20.0
23.76000, 16.0
23.80000, 17.0
23.84000, 14.0
23.88000, 17.0
23.92000, 17.0
23.96000, 18.0
24.00000, 16.0
24.04000, 17.0
24.08000, 13.0
24.12000, 14.0
24.16000, 11.0
24.20000, 16.0
24.24000, 18.0
24.28000, 15.0
24.32000, 16.0
24.36000, 14.0
24.40000, 13.0
24.44000, 10.0
24.48000, 13.0
24.52000, 13.0
24.56000, 16.0
24.60000, 12.0
24.64000, 11.0
24.68000, 15.0
24.72000, 9.0
24.76000, 16.0
24.80000, 15.0
24.84000, 8.0
24.88000, 9.0
24.92000, 11.0
24.96000, 10.0
25.00000, 10.0
25.04000, 12.0
25.08000, 11.0
25.12000, 12.0
25.16000, 14.0
25.20000, 11.0
25.24000, 12.0
25.28000, 9.0
25.32000, 11.0
25.36000, 9.0
25.40000, 9.0
25.44000, 11.0
25.48000, 15.0
25.52000, 13.0
25.56000, 7.0
25.60000, 13.0
25.64000, 8.0
25.68000, 11.0
25.72000, 8.0
25.76000, 8.0
25.80000, 7.0
25.84000, 9.0
25.88000, 9.0
25.92000, 9.0
25.96000, 12.0
26.00000, 9.0
26.04000, 11.0
26.08000, 6.0
26.12000, 7.0
26.16000, 9.0
26.20000, 5.0
26.24000, 4.0
26.28000, 4.0
26.32000, 9.0
26.36000, 5.0
26.40000, 7.0
26.44000, 11.0
26.48000, 4.0
26.52000, 3.0
26.56000, 9.0
26.60000, 5.0
26.64000, 9.0
26.68000, 8.0
26.72000, 8.0
26.76000, 5.0
26.80000, 6.0
26.84000, 5.0
26.88000, 5.0
26.92000, 6.0
26.96000, 7.0
27.00000, 5.0
27.04000, 4.0
27.08000, 6.0
27.12000, 5.0
27.16000, 6.0
27.20000, 4.0
27.24000, 6.0
27.28000, 5.0
27.32000, 6.0
27.36000, 3.0
27.40000, 2.0
27.44000, 1.0
27.48000, 3.0
27.52000, 4.0
27.56000, 6.0
27.60000, 6.0
27.64000, 3.0
27.68000, 3.0
27.72000, 3.0
27.76000, 5.0
27.80000, 3.0
27.84000, 3.0
27.88000, 2.0
27.92000, 5.0
27.96000, 7.0
28.00000, 5.0
28.04000, 3.0
28.08000, 3.0
28.12000, 3.0
28.16000, 4.0
28.20000, 2.0
28.24000, 3.0
28.28000, 4.0
28.32000, 2.0
28.36000, 2.0
28.40000, 1.0
28.44000, 2.0
28.48000, 2.0
28.52000, 5.0
28.56000, 2.0
28.60000, 3.0
28.64000, 3.0
28.68000, 2.0
28.72000, 2.0
28.76000, 4.0
28.80000, 3.0
28.84000, 0.0
28.88000, 2.0
28.92000, 2.0
28.96000, 1.0
29.00000, 3.0
29.04000, 2.0
29.08000, 1.0
29.12000, 3.0
29.16000, 2.0
29.20000, 0.0
29.24000, 2.0
29.28000, 2.0
29.32000, 1.0
29.36000, 3.0
29.40000, 1.0
29.44000, 1.0
29.48000, 4.0
29.52000, 2.0
29.56000, 0.0
29.60000, 2.0
29.64000, 3.0
29.68000, 3.0
29.72000, 1.0
29.76000, 3.0
29.80000, 0.0
29.84000, 3.0
29.88000, 2.0
29.92000, 0.0
29.96000, 0.0
30.00000, 1.0
30.04000, 1.0
30.08000, 1.0
30.12000, 0.0
30.16000, 1.0
30.20000, 1.0
30.24000, 1.0
30.28000, 0.0
30.32000, 0.0
30.36000, 0.0
30.40000, 0.0
30.44000, 0.0
30.48000, 2.0
30.52000, 2.0
30.56000, 0.0
30.60000, 0.0
30.64000, 0.0
30.68000, 0.0
30.72000, 0.0
30.76000, 0.0
30.80000, 1.0
30.84000, 0.0
30.88000, 0.0
30.92000, 0.0
30.96000, 1.0
31.00000, 0.0
31.04000, 0.0
31.08000, 1.0
31.12000, 0.0
31.16000, 0.0
31.20000, 1.0
31.24000, 0.0
31.28000, 0.0
31.32000, 0.0
31.36000, 0.0
31.40000, 0.0
31.44000, 1.0
31.48000, 0.0
31.52000, 0.0
31.56000, 0.0
31.60000, 0.0
31.64000, 0.0
31.68000, 1.0
31.72000, 0.0
31.76000, 0.0
31.80000, 0.0
31.84000, 0.0
31.88000, 0.0
31.92000, 0.0
31.96000, 1.0
32.00000, 0.0
32.04000, 1.0
32.08000, 0.0
32.12000, 1.0
32.16000, 0.0
32.20000, 0.0
32.24000, 1.0
32.28000, 0.0
32.32000, 0.0
32.36000, 0.0
32.40000, 0.0
32.44000, 0.0
32.48000, 1.0
32.52000, 0.0
32.56000, 0.0
32.60000, 0.0
32.64000, 0.0
32.68000, 1.0
32.72000, 0.0
32.76000, 0.0
32.80000, 1.0
32.84000, 0.0
32.88000, 0.0
32.92000, 0.0
32.96000, 0.0
33.00000, 0.0
33.04000, 0.0
33.08000, 0.0
33.12000, 0.0
33.16000, 0.0
33.20000, 0.0
33.24000, 0.0
33.28000, 1.0
33.32000, 0.0
33.36000, 0.0
33.40000, 0.0
33.44000, 0.0
33.48000, 0.0
33.52000, 0.0
33.56000, 0.0
33.60000, 0.0
33.64000, 0.0
33.68000, 0.0
33.72000, 0.0
33.76000, 0.0
33.80000, 0.0
33.84000, 0.0
33.88000, 0.0
33.92000, 1.0
33.96000, 0.0
34.00000, 0.0
34.04000, 1.0
34.08000, 1.0
34.12000, 0.0
34.16000, 1.0
34.20000, 0.0
34.24000, 0.0
34.28000, 0.0
34.32000, 0.0
34.36000, 0.0
34.40000, 0.0
34.44000, 0.0
34.48000, 0.0
34.52000, 0.0
34.56000, 0.0
34.60000, 0.0
34.64000, 0.0
34.68000, 0.0
34.72000, 0.0
34.76000, 0.0
34.80000, 0.0
34.84000, 0.0
34.88000, 0.0
34.92000, 0.0
34.96000, 0.0
35.00000, 0.0
35.04000, 0.0
35.08000, 0.0
35.12000, 0.0
35.16000, 0.0
35.20000, 0.0
35.24000, 0.0
35.28000, 0.0
35.32000, 1.0
35.36000, 0.0
35.40000, 0.0
35.44000, 1.0
35.48000, 1.0
35.52000, 0.0
35.56000, 0.0
35.60000, 0.0
35.64000, 0.0
35.68000, 0.0
35.72000, 0.0
35.76000, 0.0
35.80000, 0.0
35.84000, 0.0
35.88000, 0.0
35.92000, 0.0
35.96000, 0.0
36.00000, 0.0
36.04000, 0.0
36.08000, 0.0
36.12000, 0.0
36.16000, 0.0
36.20000, 0.0
36.24000, 0.0
36.28000, 0.0
36.32000, 0.0
36.36000, 0.0
36.40000, 0.0
36.44000, 0.0
36.48000, 0.0
36.52000, 0.0
36.56000, 0.0
36.60000, 0.0
36.64000, 0.0
36.68000, 0.0
36.72000, 0.0
36.76000, 0.0
36.80000, 0.0
36.84000, 0.0
36.88000, 0.0
36.92000, 0.0
36.96000, 0.0
37.00000, 0.0
37.04000, 1.0
37.08000, 0.0
37.12000, 0.0
37.16000, 0.0
37.20000, 0.0
37.24000, 0.0
37.28000, 0.0
37.32000, 0.0
37.36000, 0.0
37.40000, 0.0
37.44000, 0.0
37.48000, 0.0
37.52000, 0.0
37.56000, 0.0
37.60000, 0.0
37.64000, 0.0
37.68000, 0.0
37.72000, 0.0
37.76000, 0.0
37.80000, 0.0
37.84000, 0.0
37.88000, 0.0
37.92000, 0.0
37.96000, 0.0
38.00000, 0.0
38.04000, 0.0
38.08000, 0.0
38.12000, 0.0
38.16000, 0.0
38.20000, 0.0
38.24000, 0.0
38.28000, 0.0
38.32000, 0.0
38.36000, 1.0
38.40000, 0.0
38.44000, 0.0
38.48000, 0.0
38.52000, 0.0
38.56000, 0.0
38.60000, 0.0
38.64000, 0.0
38.68000, 0.0
38.72000, 1.0
38.76000, 0.0
38.80000, 0.0
38.84000, 0.0
38.88000, 0.0
38.92000, 0.0
38.96000, 0.0
39.00000, 0.0
39.04000, 0.0
39.08000, 0.0
39.12000, 0.0
39.16000, 0.0
39.20000, 0.0
39.24000, 0.0
39.28000, 0.0
39.32000, 0.0
39.36000, 0.0
39.40000, 0.0
39.44000, 0.0
39.48000, 0.0
39.52000, 0.0
39.56000, 0.0
39.60000, 0.0
39.64000, 0.0
39.68000, 0.0
39.72000, 0.0
39.76000, 0.0
39.80000, 0.0
39.84000, 0.0
39.88000, 0.0
39.92000, 0.0
39.96000, 0.0
40.00000, 0.0
40.04000, 0.0
40.08000, 0.0
40.12000, 0.0
40.16000, 0.0
40.20000, 0.0
40.24000, 0.0
40.28000, 0.0
40.32000, 0.0
40.36000, 0.0
40.40000, 0.0
40.44000, 0.0
40.48000, 0.0
40.52000, 0.0
40.54000, 0.0
#ENDOFDATA   :