File: spectrums WS2 30keV/A11_30keV_300924_A1_1.txt
#FORMAT      : EMSA/MAS Spectral Data File
#VERSION     : 1.0
#TITLE       : A11_10keV_300924_A1_1
#DATE        : 30-SEP-2024
#TIME        : 15:13
#OWNER       :
#NPOINTS     : 2048.0
#NCOLUMNS    : 1.0
#XUNITS      : keV
#YUNITS      : counts
#DATATYPE    : XY
#XPERCHAN    : 0.02
#OFFSET      : -0.4
#SIGNALTYPE  : EDS
#CHOFFSET    : 20.0
#LIVETIME    : 60.0386
#REALTIME    : 74.621
#BEAMKV      : 30.0
#MAGCAM      : 16000.0
#XTILTSTGE   : 0.0
#AZIMANGLE   : 0.0
#ELEVANGLE   : 25.5
#XPOSITION mm: 2.4275
#YPOSITION mm: -0.8455
#ZPOSITION mm: 12.8688
##OXINSTPT   : 2
##OXINSTSTROB: 74.68
##OXINSTELEMS: 30,8,16
##OXINSTLABEL: 30, 8.639, Zn K?1
##OXINSTLABEL: 30, 9.572, Zn K?1
##OXINSTLABEL: 30, 1.012, Zn L?1,2
##OXINSTLABEL: 30, 0.906, Zn L?
##OXINSTLABEL: 30, 0.884, Zn Ll
##OXINSTLABEL: 8, 0.525, O K?1
##OXINSTLABEL: 16, 2.308, S K?1
##OXINSTLABEL: 16, 2.464, S K?1
#SPECTRUM    : Spectral Data Starts Here
-0.40000, 0.0
-0.36000, 0.0
-0.32000, 0.0
-0.28000, 0.0
-0.24000, 0.0
-0.20000, 0.0
-0.16000, 0.0
-0.12000, 0.0
-0.08000, 8.0
-0.04000, 199.0
0.00000, 1346.0
0.04000, 2862.0
0.08000, 1943.0
0.12000, 790.0
0.16000, 612.0
0.20000, 551.0
0.24000, 781.0
0.28000, 889.0
0.32000, 610.0
0.36000, 467.0
0.40000, 634.0
0.44000, 1937.0
0.48000, 7708.0
0.52000, 13590.0
0.56000, 8198.0
0.60000, 2040.0
0.64000, 653.0
0.68000, 590.0
0.72000, 705.0
0.76000, 761.0
0.80000, 920.0
0.84000, 1047.0
0.88000, 1169.0
0.92000, 1287.0
0.96000, 1428.0
1.00000, 1532.0
1.04000, 1673.0
1.08000, 1875.0
1.12000, 2084.0
1.16000, 2205.0
1.20000, 2339.0
1.24000, 2504.0
1.28000, 2669.0
1.32000, 3036.0
1.36000, 3321.0
1.40000, 3784.0
1.44000, 4031.0
1.48000, 4501.0
1.52000, 5082.0
1.56000, 5648.0
1.60000, 8173.0
1.64000, 39442.0
1.68000, 198294.0
1.72000, 477852.0
1.76000, 503089.0
1.80000, 243147.0
1.84000, 68570.0
1.88000, 18277.0
1.92000, 4582.0
1.96000, 1100.0
2.00000, 757.0
2.04000, 729.0
2.08000, 703.0
2.12000, 713.0
2.16000, 734.0
2.20000, 1017.0
2.24000, 1656.0
2.28000, 2515.0
2.32000, 2668.0
2.36000, 1948.0
2.40000, 1171.0
2.44000, 949.0
2.48000, 959.0
2.52000, 924.0
2.56000, 863.0
2.60000, 904.0
2.64000, 901.0
2.68000, 875.0
2.72000, 957.0
2.76000, 973.0
2.80000, 976.0
2.84000, 1007.0
2.88000, 1017.0
2.92000, 1080.0
2.96000, 1104.0
3.00000, 1096.0
3.04000, 1070.0
3.08000, 1139.0
3.12000, 1152.0
3.16000, 1187.0
3.20000, 1167.0
3.24000, 1225.0
3.28000, 1262.0
3.32000, 1343.0
3.36000, 1861.0
3.40000, 3860.0
3.44000, 8117.0
3.48000, 11472.0
3.52000, 9745.0
3.56000, 5577.0
3.60000, 2834.0
3.64000, 1603.0
3.68000, 1262.0
3.72000, 1158.0
3.76000, 1126.0
3.80000, 1142.0
3.84000, 1165.0
3.88000, 1107.0
3.92000, 1112.0
3.96000, 1149.0
4.00000, 1212.0
4.04000, 1249.0
4.08000, 1188.0
4.12000, 1181.0
4.16000, 1178.0
4.20000, 1156.0
4.24000, 1130.0
4.28000, 1176.0
4.32000, 1169.0
4.36000, 1183.0
4.40000, 1160.0
4.44000, 1169.0
4.48000, 1172.0
4.52000, 1117.0
4.56000, 1169.0
4.60000, 1137.0
4.64000, 1121.0
4.68000, 1118.0
4.72000, 1163.0
4.76000, 1118.0
4.80000, 1073.0
4.84000, 1155.0
4.88000, 1142.0
4.92000, 1112.0
4.96000, 1110.0
5.00000, 1154.0
5.04000, 1114.0
5.08000, 1147.0
5.12000, 1100.0
5.16000, 1185.0
5.20000, 1289.0
5.24000, 1258.0
5.28000, 1246.0
5.32000, 1146.0
5.36000, 1074.0
5.40000, 1092.0
5.44000, 1086.0
5.48000, 1054.0
5.52000, 1060.0
5.56000, 1025.0
5.60000, 1068.0
5.64000, 1007.0
5.68000, 1019.0
5.72000, 1002.0
5.76000, 1040.0
5.80000, 1036.0
5.84000, 978.0
5.88000, 954.0
5.92000, 1025.0
5.96000, 973.0
6.00000, 971.0
6.04000, 945.0
6.08000, 942.0
6.12000, 945.0
6.16000, 973.0
6.20000, 961.0
6.24000, 927.0
6.28000, 944.0
6.32000, 919.0
6.36000, 903.0
6.40000, 926.0
6.44000, 915.0
6.48000, 906.0
6.52000, 899.0
6.56000, 921.0
6.60000, 858.0
6.64000, 894.0
6.68000, 887.0
6.72000, 897.0
6.76000, 852.0
6.80000, 865.0
6.84000, 884.0
6.88000, 856.0
6.92000, 856.0
6.96000, 868.0
7.00000, 823.0
7.04000, 832.0
7.08000, 814.0
7.12000, 838.0
7.16000, 817.0
7.20000, 762.0
7.24000, 829.0
7.28000, 806.0
7.32000, 792.0
7.36000, 805.0
7.40000, 797.0
7.44000, 875.0
7.48000, 798.0
7.52000, 761.0
7.56000, 772.0
7.60000, 755.0
7.64000, 753.0
7.68000, 786.0
7.72000, 748.0
7.76000, 747.0
7.80000, 745.0
7.84000, 754.0
7.88000, 711.0
7.92000, 752.0
7.96000, 712.0
8.00000, 699.0
8.04000, 706.0
8.08000, 698.0
8.12000, 719.0
8.16000, 687.0
8.20000, 668.0
8.24000, 750.0
8.28000, 844.0
8.32000, 891.0
8.36000, 1059.0
8.40000, 1098.0
8.44000, 943.0
8.48000, 833.0
8.52000, 743.0
8.56000, 690.0
8.60000, 711.0
8.64000, 637.0
8.68000, 641.0
8.72000, 637.0
8.76000, 638.0
8.80000, 610.0
8.84000, 618.0
8.88000, 620.0
8.92000, 601.0
8.96000, 582.0
9.00000, 606.0
9.04000, 615.0
9.08000, 575.0
9.12000, 629.0
9.16000, 589.0
9.20000, 591.0
9.24000, 591.0
9.28000, 593.0
9.32000, 566.0
9.36000, 572.0
9.40000, 582.0
9.44000, 562.0
9.48000, 616.0
9.52000, 651.0
9.56000, 627.0
9.60000, 658.0
9.64000, 700.0
9.68000, 710.0
9.72000, 686.0
9.76000, 655.0
9.80000, 590.0
9.84000, 588.0
9.88000, 568.0
9.92000, 587.0
9.96000, 601.0
10.00000, 601.0
10.04000, 540.0
10.08000, 543.0
10.12000, 543.0
10.16000, 510.0
10.20000, 524.0
10.24000, 516.0
10.28000, 472.0
10.32000, 481.0
10.36000, 465.0
10.40000, 483.0
10.44000, 460.0
10.48000, 464.0
10.52000, 466.0
10.56000, 436.0
10.60000, 440.0
10.64000, 431.0
10.68000, 467.0
10.72000, 406.0
10.76000, 440.0
10.80000, 449.0
10.84000, 426.0
10.88000, 445.0
10.92000, 443.0
10.96000, 407.0
11.00000, 418.0
11.04000, 442.0
11.08000, 418.0
11.12000, 386.0
11.16000, 395.0
11.20000, 419.0
11.24000, 423.0
11.28000, 407.0
11.32000, 419.0
11.36000, 433.0
11.40000, 423.0
11.44000, 404.0
11.48000, 412.0
11.52000, 391.0
11.56000, 377.0
11.60000, 375.0
11.64000, 385.0
11.68000, 379.0
11.72000, 381.0
11.76000, 349.0
11.80000, 371.0
11.84000, 363.0
11.88000, 379.0
11.92000, 364.0
11.96000, 334.0
12.00000, 337.0
12.04000, 328.0
12.08000, 338.0
12.12000, 341.0
12.16000, 332.0
12.20000, 337.0
12.24000, 348.0
12.28000, 307.0
12.32000, 319.0
12.36000, 311.0
12.40000, 307.0
12.44000, 309.0
12.48000, 332.0
12.52000, 307.0
12.56000, 310.0
12.60000, 322.0
12.64000, 302.0
12.68000, 299.0
12.72000, 302.0
12.76000, 297.0
12.80000, 284.0
12.84000, 290.0
12.88000, 298.0
12.92000, 281.0
12.96000, 287.0
13.00000, 284.0
13.04000, 300.0
13.08000, 286.0
13.12000, 266.0
13.16000, 274.0
13.20000, 284.0
13.24000, 266.0
13.28000, 268.0
13.32000, 279.0
13.36000, 259.0
13.40000, 260.0
13.44000, 284.0
13.48000, 263.0
13.52000, 248.0
13.56000, 254.0
13.60000, 260.0
13.64000, 243.0
13.68000, 242.0
13.72000, 227.0
13.76000, 238.0
13.80000, 223.0
13.84000, 250.0
13.88000, 222.0
13.92000, 213.0
13.96000, 244.0
14.00000, 213.0
14.04000, 224.0
14.08000, 205.0
14.12000, 221.0
14.16000, 207.0
14.20000, 213.0
14.24000, 196.0
14.28000, 200.0
14.32000, 208.0
14.36000, 203.0
14.40000, 211.0
14.44000, 208.0
14.48000, 192.0
14.52000, 203.0
14.56000, 190.0
14.60000, 175.0
14.64000, 209.0
14.68000, 195.0
14.72000, 185.0
14.76000, 187.0
14.80000, 183.0
14.84000, 173.0
14.88000, 189.0
14.92000, 186.0
14.96000, 164.0
15.00000, 179.0
15.04000, 160.0
15.08000, 178.0
15.12000, 156.0
15.16000, 173.0
15.20000, 167.0
15.24000, 175.0
15.28000, 150.0
15.32000, 147.0
15.36000, 153.0
15.40000, 138.0
15.44000, 148.0
15.48000, 160.0
15.52000, 131.0
15.56000, 159.0
15.60000, 144.0
15.64000, 161.0
15.68000, 153.0
15.72000, 158.0
15.76000, 154.0
15.80000, 133.0
15.84000, 137.0
15.88000, 136.0
15.92000, 148.0
15.96000, 142.0
16.00000, 127.0
16.04000, 136.0
16.08000, 121.0
16.12000, 137.0
16.16000, 120.0
16.20000, 125.0
16.24000, 130.0
16.28000, 136.0
16.32000, 138.0
16.36000, 124.0
16.40000, 121.0
16.44000, 123.0
16.48000, 116.0
16.52000, 116.0
16.56000, 115.0
16.60000, 129.0
16.64000, 125.0
16.68000, 112.0
16.72000, 112.0
16.76000, 119.0
16.80000, 104.0
16.84000, 104.0
16.88000, 115.0
16.92000, 120.0
16.96000, 107.0
17.00000, 109.0
17.04000, 101.0
17.08000, 95.0
17.12000, 96.0
17.16000, 103.0
17.20000, 114.0
17.24000, 99.0
17.28000, 100.0
17.32000, 107.0
17.36000, 101.0
17.40000, 117.0
17.44000, 97.0
17.48000, 102.0
17.52000, 96.0
17.56000, 89.0
17.60000, 95.0
17.64000, 82.0
17.68000, 107.0
17.72000, 79.0
17.76000, 87.0
17.80000, 91.0
17.84000, 83.0
17.88000, 91.0
17.92000, 87.0
17.96000, 75.0
18.00000, 80.0
18.04000, 81.0
18.08000, 85.0
18.12000, 98.0
18.16000, 68.0
18.20000, 78.0
18.24000, 77.0
18.28000, 91.0
18.32000, 81.0
18.36000, 81.0
18.40000, 78.0
18.44000, 77.0
18.48000, 75.0
18.52000, 77.0
18.56000, 75.0
18.60000, 62.0
18.64000, 80.0
18.68000, 71.0
18.72000, 73.0
18.76000, 71.0
18.80000, 71.0
18.84000, 61.0
18.88000, 74.0
18.92000, 68.0
18.96000, 61.0
19.00000, 60.0
19.04000, 64.0
19.08000, 66.0
19.12000, 63.0
19.16000, 63.0
19.20000, 50.0
19.24000, 57.0
19.28000, 55.0
19.32000, 55.0
19.36000, 65.0
19.40000, 42.0
19.44000, 53.0
19.48000, 52.0
19.52000, 58.0
19.56000, 57.0
19.60000, 55.0
19.64000, 50.0
19.68000, 49.0
19.72000, 47.0
19.76000, 52.0
19.80000, 54.0
19.84000, 46.0
19.88000, 51.0
19.92000, 49.0
19.96000, 61.0
20.00000, 38.0
20.04000, 50.0
20.08000, 50.0
20.12000, 44.0
20.16000, 46.0
20.20000, 48.0
20.24000, 48.0
20.28000, 46.0
20.32000, 39.0
20.36000, 37.0
20.40000, 45.0
20.44000, 42.0
20.48000, 36.0
20.52000, 46.0
20.56000, 45.0
20.60000, 45.0
20.64000, 37.0
20.68000, 35.0
20.72000, 37.0
20.76000, 35.0
20.80000, 34.0
20.84000, 38.0
20.88000, 40.0
20.92000, 39.0
20.96000, 35.0
21.00000, 52.0
21.04000, 40.0
21.08000, 32.0
21.12000, 38.0
21.16000, 29.0
21.20000, 40.0
21.24000, 39.0
21.28000, 33.0
21.32000, 31.0
21.36000, 42.0
21.40000, 37.0
21.44000, 28.0
21.48000, 36.0
21.52000, 35.0
21.56000, 30.0
21.60000, 33.0
21.64000, 29.0
21.68000, 36.0
21.72000, 26.0
21.76000, 31.0
21.80000, 34.0
21.84000, 28.0
21.88000, 24.0
21.92000, 30.0
21.96000, 20.0
22.00000, 26.0
22.04000, 31.0
22.08000, 20.0
22.12000, 29.0
22.16000, 34.0
22.20000, 28.0
22.24000, 28.0
22.28000, 28.0
22.32000, 23.0
22.36000, 23.0
22.40000, 25.0
22.44000, 22.0
22.48000, 23.0
22.52000, 27.0
22.56000, 20.0
22.60000, 22.0
22.64000, 23.0
22.68000, 32.0
22.72000, 19.0
22.76000, 19.0
22.80000, 20.0
22.84000, 26.0
22.88000, 22.0
22.92000, 19.0
22.96000, 20.0
23.00000, 13.0
23.04000, 29.0
23.08000, 25.0
23.12000, 21.0
23.16000, 30.0
23.20000, 14.0
23.24000, 23.0
23.28000, 18.0
23.32000, 18.0
23.36000, 17.0
23.40000, 21.0
23.44000, 20.0
23.48000, 20.0
23.52000, 15.0
23.56000, 13.0
23.60000, 22.0
23.64000, 18.0
23.68000, 17.0
23.72000, 18.0
23.76000, 13.0
23.80000, 12.0
23.84000, 13.0
23.88000, 15.0
23.92000, 14.0
23.96000, 19.0
24.00000, 12.0
24.04000, 10.0
24.08000, 20.0
24.12000, 10.0
24.16000, 17.0
24.20000, 18.0
24.24000, 16.0
24.28000, 12.0
24.32000, 14.0
24.36000, 13.0
24.40000, 18.0
24.44000, 17.0
24.48000, 15.0
24.52000, 13.0
24.56000, 9.0
24.60000, 12.0
24.64000, 17.0
24.68000, 12.0
24.72000, 15.0
24.76000, 11.0
24.80000, 16.0
24.84000, 17.0
24.88000, 11.0
24.92000, 13.0
24.96000, 17.0
25.00000, 9.0
25.04000, 11.0
25.08000, 14.0
25.12000, 7.0
25.16000, 17.0
25.20000, 9.0
25.24000, 7.0
25.28000, 11.0
25.32000, 12.0
25.36000, 8.0
25.40000, 10.0
25.44000, 10.0
25.48000, 8.0
25.52000, 4.0
25.56000, 9.0
25.60000, 6.0
25.64000, 9.0
25.68000, 12.0
25.72000, 8.0
25.76000, 5.0
25.80000, 8.0
25.84000, 10.0
25.88000, 9.0
25.92000, 5.0
25.96000, 6.0
26.00000, 11.0
26.04000, 8.0
26.08000, 10.0
26.12000, 5.0
26.16000, 5.0
26.20000, 8.0
26.24000, 7.0
26.28000, 9.0
26.32000, 6.0
26.36000, 5.0
26.40000, 4.0
26.44000, 7.0
26.48000, 6.0
26.52000, 4.0
26.56000, 9.0
26.60000, 7.0
26.64000, 5.0
26.68000, 7.0
26.72000, 7.0
26.76000, 10.0
26.80000, 5.0
26.84000, 3.0
26.88000, 7.0
26.92000, 4.0
26.96000, 7.0
27.00000, 6.0
27.04000, 2.0
27.08000, 6.0
27.12000, 1.0
27.16000, 4.0
27.20000, 5.0
27.24000, 4.0
27.28000, 4.0
27.32000, 3.0
27.36000, 4.0
27.40000, 3.0
27.44000, 3.0
27.48000, 5.0
27.52000, 3.0
27.56000, 3.0
27.60000, 2.0
27.64000, 5.0
27.68000, 5.0
27.72000, 2.0
27.76000, 2.0
27.80000, 1.0
27.84000, 1.0
27.88000, 2.0
27.92000, 1.0
27.96000, 3.0
28.00000, 5.0
28.04000, 4.0
28.08000, 1.0
28.12000, 1.0
28.16000, 3.0
28.20000, 4.0
28.24000, 2.0
28.28000, 3.0
28.32000, 0.0
28.36000, 2.0
28.40000, 4.0
28.44000, 2.0
28.48000, 2.0
28.52000, 2.0
28.56000, 3.0
28.60000, 2.0
28.64000, 3.0
28.68000, 1.0
28.72000, 3.0
28.76000, 5.0
28.80000, 0.0
28.84000, 1.0
28.88000, 4.0
28.92000, 2.0
28.96000, 3.0
29.00000, 5.0
29.04000, 4.0
29.08000, 0.0
29.12000, 2.0
29.16000, 3.0
29.20000, 0.0
29.24000, 2.0
29.28000, 0.0
29.32000, 1.0
29.36000, 2.0
29.40000, 2.0
29.44000, 0.0
29.48000, 1.0
29.52000, 0.0
29.56000, 0.0
29.60000, 3.0
29.64000, 1.0
29.68000, 0.0
29.72000, 0.0
29.76000, 0.0
29.80000, 0.0
29.84000, 1.0
29.88000, 3.0
29.92000, 0.0
29.96000, 0.0
30.00000, 0.0
30.04000, 0.0
30.08000, 0.0
30.12000, 1.0
30.16000, 0.0
30.20000, 0.0
30.24000, 0.0
30.28000, 0.0
30.32000, 0.0
30.36000, 0.0
30.40000, 0.0
30.44000, 1.0
30.48000, 1.0
30.52000, 0.0
30.56000, 0.0
30.60000, 0.0
30.64000, 1.0
30.68000, 0.0
30.72000, 1.0
30.76000, 0.0
30.80000, 1.0
30.84000, 0.0
30.88000, 1.0
30.92000, 1.0
30.96000, 0.0
31.00000, 0.0
31.04000, 0.0
31.08000, 0.0
31.12000, 0.0
31.16000, 0.0
31.20000, 0.0
31.24000, 1.0
31.28000, 2.0
31.32000, 0.0
31.36000, 0.0
31.40000, 0.0
31.44000, 1.0
31.48000, 0.0
31.52000, 0.0
31.56000, 0.0
31.60000, 0.0
31.64000, 0.0
31.68000, 0.0
31.72000, 0.0
31.76000, 0.0
31.80000, 0.0
31.84000, 1.0
31.88000, 0.0
31.92000, 0.0
31.96000, 1.0
32.00000, 0.0
32.04000, 0.0
32.08000, 0.0
32.12000, 0.0
32.16000, 0.0
32.20000, 0.0
32.24000, 0.0
32.28000, 0.0
32.32000, 0.0
32.36000, 0.0
32.40000, 0.0
32.44000, 0.0
32.48000, 0.0
32.52000, 0.0
32.56000, 0.0
32.60000, 0.0
32.64000, 1.0
32.68000, 0.0
32.72000, 0.0
32.76000, 0.0
32.80000, 0.0
32.84000, 1.0
32.88000, 0.0
32.92000, 0.0
32.96000, 0.0
33.00000, 0.0
33.04000, 0.0
33.08000, 0.0
33.12000, 0.0
33.16000, 0.0
33.20000, 0.0
33.24000, 0.0
33.28000, 0.0
33.32000, 0.0
33.36000, 0.0
33.40000, 0.0
33.44000, 1.0
33.48000, 0.0
33.52000, 0.0
33.56000, 0.0
33.60000, 0.0
33.64000, 0.0
33.68000, 2.0
33.72000, 1.0
33.76000, 0.0
33.80000, 0.0
33.84000, 0.0
33.88000, 0.0
33.92000, 0.0
33.96000, 0.0
34.00000, 0.0
34.04000, 0.0
34.08000, 0.0
34.12000, 0.0
34.16000, 1.0
34.20000, 0.0
34.24000, 0.0
34.28000, 0.0
34.32000, 0.0
34.36000, 0.0
34.40000, 0.0
34.44000, 0.0
34.48000, 0.0
34.52000, 0.0
34.56000, 0.0
34.60000, 0.0
34.64000, 0.0
34.68000, 0.0
34.72000, 0.0
34.76000, 0.0
34.80000, 0.0
34.84000, 0.0
34.88000, 0.0
34.92000, 0.0
34.96000, 0.0
35.00000, 0.0
35.04000, 0.0
35.08000, 0.0
35.12000, 0.0
35.16000, 1.0
35.20000, 0.0
35.24000, 0.0
35.28000, 0.0
35.32000, 0.0
35.36000, 0.0
35.40000, 0.0
35.44000, 0.0
35.48000, 0.0
35.52000, 0.0
35.56000, 0.0
35.60000, 0.0
35.64000, 0.0
35.68000, 0.0
35.72000, 0.0
35.76000, 0.0
35.80000, 0.0
35.84000, 0.0
35.88000, 1.0
35.92000, 0.0
35.96000, 0.0
36.00000, 0.0
36.04000, 0.0
36.08000, 0.0
36.12000, 0.0
36.16000, 0.0
36.20000, 0.0
36.24000, 0.0
36.28000, 0.0
36.32000, 0.0
36.36000, 0.0
36.40000, 0.0
36.44000, 0.0
36.48000, 0.0
36.52000, 0.0
36.56000, 1.0
36.60000, 0.0
36.64000, 1.0
36.68000, 0.0
36.72000, 0.0
36.76000, 0.0
36.80000, 0.0
36.84000, 0.0
36.88000, 0.0
36.92000, 1.0
36.96000, 0.0
37.00000, 0.0
37.04000, 0.0
37.08000, 0.0
37.12000, 0.0
37.16000, 0.0
37.20000, 0.0
37.24000, 0.0
37.28000, 0.0
37.32000, 0.0
37.36000, 0.0
37.40000, 0.0
37.44000, 0.0
37.48000, 0.0
37.52000, 0.0
37.56000, 0.0
37.60000, 0.0
37.64000, 0.0
37.68000, 0.0
37.72000, 0.0
37.76000, 0.0
37.80000, 0.0
37.84000, 0.0
37.88000, 0.0
37.92000, 0.0
37.96000, 0.0
38.00000, 0.0
38.04000, 0.0
38.08000, 0.0
38.12000, 0.0
38.16000, 0.0
38.20000, 0.0
38.24000, 0.0
38.28000, 0.0
38.32000, 0.0
38.36000, 0.0
38.40000, 0.0
38.44000, 0.0
38.48000, 0.0
38.52000, 0.0
38.56000, 0.0
38.60000, 0.0
38.64000, 0.0
38.68000, 0.0
38.72000, 0.0
38.76000, 0.0
38.80000, 0.0
38.84000, 0.0
38.88000, 0.0
38.92000, 0.0
38.96000, 0.0
39.00000, 0.0
39.04000, 0.0
39.08000, 0.0
39.12000, 0.0
39.16000, 0.0
39.20000, 0.0
39.24000, 0.0
39.28000, 0.0
39.32000, 0.0
39.36000, 0.0
39.40000, 0.0
39.44000, 0.0
39.48000, 0.0
39.52000, 0.0
39.56000, 0.0
39.60000, 0.0
39.64000, 0.0
39.68000, 0.0
39.72000, 0.0
39.76000, 0.0
39.80000, 0.0
39.84000, 0.0
39.88000, 0.0
39.92000, 0.0
39.96000, 0.0
40.00000, 0.0
40.04000, 0.0
40.08000, 0.0
40.12000, 0.0
40.16000, 0.0
40.20000, 0.0
40.24000, 0.0
40.28000, 0.0
40.32000, 0.0
40.36000, 0.0
40.40000, 0.0
40.44000, 0.0
40.48000, 0.0
40.52000, 0.0
40.54000, 0.0
#ENDOFDATA   :