File: spectrums WS2 30keV/A11_30keV_300924_A2_3.txt
#FORMAT      : EMSA/MAS Spectral Data File
#VERSION     : 1.0
#TITLE       : A11_10keV_300924_A2_3
#DATE        : 30-SEP-2024
#TIME        : 15:20
#OWNER       :
#NPOINTS     : 2048.0
#NCOLUMNS    : 1.0
#XUNITS      : keV
#YUNITS      : counts
#DATATYPE    : XY
#XPERCHAN    : 0.02
#OFFSET      : -0.4
#SIGNALTYPE  : EDS
#CHOFFSET    : 20.0
#LIVETIME    : 60.0859
#REALTIME    : 74.6272
#BEAMKV      : 30.0
#MAGCAM      : 16000.0
#XTILTSTGE   : 0.0
#AZIMANGLE   : 0.0
#ELEVANGLE   : 25.5
#XPOSITION mm: 2.4258
#YPOSITION mm: -0.8530
#ZPOSITION mm: 12.8688
##OXINSTPT   : 2
##OXINSTSTROB: 74.66
##OXINSTELEMS: 30,8,16
##OXINSTLABEL: 30, 8.639, Zn K?1
##OXINSTLABEL: 30, 9.572, Zn K?1
##OXINSTLABEL: 30, 1.012, Zn L?1,2
##OXINSTLABEL: 30, 0.906, Zn L?
##OXINSTLABEL: 30, 0.884, Zn Ll
##OXINSTLABEL: 8, 0.525, O K?1
##OXINSTLABEL: 16, 2.308, S K?1
##OXINSTLABEL: 16, 2.464, S K?1
#SPECTRUM    : Spectral Data Starts Here
-0.40000, 0.0
-0.36000, 0.0
-0.32000, 0.0
-0.28000, 0.0
-0.24000, 0.0
-0.20000, 0.0
-0.16000, 0.0
-0.12000, 0.0
-0.08000, 6.0
-0.04000, 200.0
0.00000, 1386.0
0.04000, 2861.0
0.08000, 2002.0
0.12000, 832.0
0.16000, 707.0
0.20000, 670.0
0.24000, 898.0
0.28000, 989.0
0.32000, 667.0
0.36000, 436.0
0.40000, 620.0
0.44000, 1632.0
0.48000, 6174.0
0.52000, 10975.0
0.56000, 6805.0
0.60000, 1807.0
0.64000, 699.0
0.68000, 670.0
0.72000, 734.0
0.76000, 917.0
0.80000, 967.0
0.84000, 1155.0
0.88000, 1231.0
0.92000, 1322.0
0.96000, 1495.0
1.00000, 1643.0
1.04000, 1782.0
1.08000, 1941.0
1.12000, 2097.0
1.16000, 2289.0
1.20000, 2432.0
1.24000, 2595.0
1.28000, 2791.0
1.32000, 3146.0
1.36000, 3485.0
1.40000, 3810.0
1.44000, 4202.0
1.48000, 4580.0
1.52000, 5048.0
1.56000, 5627.0
1.60000, 8214.0
1.64000, 38961.0
1.68000, 195765.0
1.72000, 472078.0
1.76000, 498330.0
1.80000, 242243.0
1.84000, 69240.0
1.88000, 18564.0
1.92000, 4633.0
1.96000, 1242.0
2.00000, 814.0
2.04000, 834.0
2.08000, 789.0
2.12000, 731.0
2.16000, 797.0
2.20000, 1067.0
2.24000, 1912.0
2.28000, 3501.0
2.32000, 3951.0
2.36000, 2649.0
2.40000, 1459.0
2.44000, 1074.0
2.48000, 1093.0
2.52000, 1035.0
2.56000, 929.0
2.60000, 902.0
2.64000, 889.0
2.68000, 957.0
2.72000, 946.0
2.76000, 977.0
2.80000, 988.0
2.84000, 1032.0
2.88000, 1008.0
2.92000, 1040.0
2.96000, 1131.0
3.00000, 1082.0
3.04000, 1149.0
3.08000, 1188.0
3.12000, 1186.0
3.16000, 1201.0
3.20000, 1240.0
3.24000, 1277.0
3.28000, 1289.0
3.32000, 1339.0
3.36000, 1790.0
3.40000, 3803.0
3.44000, 7933.0
3.48000, 11179.0
3.52000, 9489.0
3.56000, 5387.0
3.60000, 2826.0
3.64000, 1687.0
3.68000, 1335.0
3.72000, 1184.0
3.76000, 1190.0
3.80000, 1171.0
3.84000, 1197.0
3.88000, 1137.0
3.92000, 1205.0
3.96000, 1215.0
4.00000, 1277.0
4.04000, 1310.0
4.08000, 1265.0
4.12000, 1256.0
4.16000, 1209.0
4.20000, 1181.0
4.24000, 1153.0
4.28000, 1174.0
4.32000, 1186.0
4.36000, 1170.0
4.40000, 1159.0
4.44000, 1153.0
4.48000, 1212.0
4.52000, 1146.0
4.56000, 1174.0
4.60000, 1148.0
4.64000, 1136.0
4.68000, 1199.0
4.72000, 1122.0
4.76000, 1155.0
4.80000, 1131.0
4.84000, 1163.0
4.88000, 1106.0
4.92000, 1106.0
4.96000, 1137.0
5.00000, 1097.0
5.04000, 1094.0
5.08000, 1120.0
5.12000, 1165.0
5.16000, 1207.0
5.20000, 1289.0
5.24000, 1223.0
5.28000, 1196.0
5.32000, 1184.0
5.36000, 1094.0
5.40000, 1066.0
5.44000, 1041.0
5.48000, 1064.0
5.52000, 1062.0
5.56000, 1043.0
5.60000, 1048.0
5.64000, 1048.0
5.68000, 997.0
5.72000, 1023.0
5.76000, 982.0
5.80000, 1052.0
5.84000, 1025.0
5.88000, 1012.0
5.92000, 966.0
5.96000, 1009.0
6.00000, 1011.0
6.04000, 1015.0
6.08000, 966.0
6.12000, 960.0
6.16000, 954.0
6.20000, 924.0
6.24000, 946.0
6.28000, 972.0
6.32000, 982.0
6.36000, 926.0
6.40000, 945.0
6.44000, 938.0
6.48000, 953.0
6.52000, 928.0
6.56000, 921.0
6.60000, 884.0
6.64000, 898.0
6.68000, 929.0
6.72000, 876.0
6.76000, 878.0
6.80000, 891.0
6.84000, 814.0
6.88000, 802.0
6.92000, 872.0
6.96000, 858.0
7.00000, 880.0
7.04000, 877.0
7.08000, 830.0
7.12000, 811.0
7.16000, 827.0
7.20000, 826.0
7.24000, 830.0
7.28000, 808.0
7.32000, 827.0
7.36000, 843.0
7.40000, 848.0
7.44000, 790.0
7.48000, 778.0
7.52000, 779.0
7.56000, 756.0
7.60000, 779.0
7.64000, 743.0
7.68000, 734.0
7.72000, 749.0
7.76000, 792.0
7.80000, 745.0
7.84000, 775.0
7.88000, 764.0
7.92000, 734.0
7.96000, 739.0
8.00000, 728.0
8.04000, 714.0
8.08000, 727.0
8.12000, 729.0
8.16000, 709.0
8.20000, 707.0
8.24000, 777.0
8.28000, 923.0
8.32000, 1119.0
8.36000, 1304.0
8.40000, 1375.0
8.44000, 1234.0
8.48000, 994.0
8.52000, 813.0
8.56000, 709.0
8.60000, 655.0
8.64000, 640.0
8.68000, 643.0
8.72000, 641.0
8.76000, 639.0
8.80000, 630.0
8.84000, 659.0
8.88000, 611.0
8.92000, 630.0
8.96000, 629.0
9.00000, 646.0
9.04000, 578.0
9.08000, 589.0
9.12000, 603.0
9.16000, 610.0
9.20000, 587.0
9.24000, 597.0
9.28000, 589.0
9.32000, 583.0
9.36000, 587.0
9.40000, 557.0
9.44000, 595.0
9.48000, 613.0
9.52000, 644.0
9.56000, 691.0
9.60000, 782.0
9.64000, 833.0
9.68000, 872.0
9.72000, 802.0
9.76000, 686.0
9.80000, 654.0
9.84000, 596.0
9.88000, 632.0
9.92000, 666.0
9.96000, 653.0
10.00000, 633.0
10.04000, 612.0
10.08000, 572.0
10.12000, 581.0
10.16000, 551.0
10.20000, 554.0
10.24000, 494.0
10.28000, 504.0
10.32000, 490.0
10.36000, 502.0
10.40000, 487.0
10.44000, 480.0
10.48000, 489.0
10.52000, 500.0
10.56000, 480.0
10.60000, 438.0
10.64000, 462.0
10.68000, 484.0
10.72000, 465.0
10.76000, 453.0
10.80000, 457.0
10.84000, 442.0
10.88000, 430.0
10.92000, 440.0
10.96000, 410.0
11.00000, 417.0
11.04000, 419.0
11.08000, 424.0
11.12000, 429.0
11.16000, 435.0
11.20000, 437.0
11.24000, 463.0
11.28000, 483.0
11.32000, 466.0
11.36000, 456.0
11.40000, 447.0
11.44000, 390.0
11.48000, 429.0
11.52000, 403.0
11.56000, 391.0
11.60000, 405.0
11.64000, 399.0
11.68000, 407.0
11.72000, 397.0
11.76000, 357.0
11.80000, 379.0
11.84000, 395.0
11.88000, 361.0
11.92000, 344.0
11.96000, 375.0
12.00000, 346.0
12.04000, 340.0
12.08000, 348.0
12.12000, 333.0
12.16000, 337.0
12.20000, 350.0
12.24000, 335.0
12.28000, 313.0
12.32000, 342.0
12.36000, 322.0
12.40000, 339.0
12.44000, 308.0
12.48000, 313.0
12.52000, 288.0
12.56000, 316.0
12.60000, 298.0
12.64000, 329.0
12.68000, 303.0
12.72000, 315.0
12.76000, 310.0
12.80000, 301.0
12.84000, 293.0
12.88000, 294.0
12.92000, 285.0
12.96000, 287.0
13.00000, 294.0
13.04000, 288.0
13.08000, 279.0
13.12000, 276.0
13.16000, 264.0
13.20000, 279.0
13.24000, 291.0
13.28000, 280.0
13.32000, 269.0
13.36000, 259.0
13.40000, 260.0
13.44000, 258.0
13.48000, 257.0
13.52000, 254.0
13.56000, 240.0
13.60000, 260.0
13.64000, 260.0
13.68000, 232.0
13.72000, 273.0
13.76000, 239.0
13.80000, 258.0
13.84000, 239.0
13.88000, 224.0
13.92000, 229.0
13.96000, 235.0
14.00000, 235.0
14.04000, 227.0
14.08000, 238.0
14.12000, 226.0
14.16000, 221.0
14.20000, 221.0
14.24000, 221.0
14.28000, 207.0
14.32000, 200.0
14.36000, 223.0
14.40000, 209.0
14.44000, 203.0
14.48000, 209.0
14.52000, 204.0
14.56000, 190.0
14.60000, 206.0
14.64000, 197.0
14.68000, 194.0
14.72000, 181.0
14.76000, 187.0
14.80000, 168.0
14.84000, 175.0
14.88000, 166.0
14.92000, 187.0
14.96000, 181.0
15.00000, 180.0
15.04000, 203.0
15.08000, 204.0
15.12000, 172.0
15.16000, 172.0
15.20000, 166.0
15.24000, 169.0
15.28000, 174.0
15.32000, 172.0
15.36000, 161.0
15.40000, 159.0
15.44000, 158.0
15.48000, 177.0
15.52000, 188.0
15.56000, 140.0
15.60000, 162.0
15.64000, 176.0
15.68000, 159.0
15.72000, 150.0
15.76000, 138.0
15.80000, 160.0
15.84000, 137.0
15.88000, 149.0
15.92000, 147.0
15.96000, 145.0
16.00000, 138.0
16.04000, 149.0
16.08000, 126.0
16.12000, 132.0
16.16000, 123.0
16.20000, 131.0
16.24000, 124.0
16.28000, 138.0
16.32000, 129.0
16.36000, 139.0
16.40000, 121.0
16.44000, 119.0
16.48000, 125.0
16.52000, 124.0
16.56000, 128.0
16.60000, 122.0
16.64000, 130.0
16.68000, 118.0
16.72000, 121.0
16.76000, 112.0
16.80000, 99.0
16.84000, 118.0
16.88000, 129.0
16.92000, 97.0
16.96000, 107.0
17.00000, 119.0
17.04000, 100.0
17.08000, 91.0
17.12000, 115.0
17.16000, 104.0
17.20000, 103.0
17.24000, 98.0
17.28000, 89.0
17.32000, 107.0
17.36000, 95.0
17.40000, 92.0
17.44000, 98.0
17.48000, 96.0
17.52000, 95.0
17.56000, 101.0
17.60000, 92.0
17.64000, 99.0
17.68000, 108.0
17.72000, 91.0
17.76000, 81.0
17.80000, 74.0
17.84000, 94.0
17.88000, 87.0
17.92000, 97.0
17.96000, 88.0
18.00000, 87.0
18.04000, 80.0
18.08000, 84.0
18.12000, 77.0
18.16000, 83.0
18.20000, 74.0
18.24000, 92.0
18.28000, 76.0
18.32000, 64.0
18.36000, 83.0
18.40000, 82.0
18.44000, 80.0
18.48000, 84.0
18.52000, 88.0
18.56000, 82.0
18.60000, 68.0
18.64000, 70.0
18.68000, 72.0
18.72000, 70.0
18.76000, 82.0
18.80000, 74.0
18.84000, 70.0
18.88000, 72.0
18.92000, 65.0
18.96000, 69.0
19.00000, 63.0
19.04000, 73.0
19.08000, 60.0
19.12000, 59.0
19.16000, 61.0
19.20000, 66.0
19.24000, 64.0
19.28000, 72.0
19.32000, 53.0
19.36000, 58.0
19.40000, 69.0
19.44000, 72.0
19.48000, 72.0
19.52000, 61.0
19.56000, 57.0
19.60000, 61.0
19.64000, 56.0
19.68000, 66.0
19.72000, 44.0
19.76000, 56.0
19.80000, 51.0
19.84000, 62.0
19.88000, 52.0
19.92000, 54.0
19.96000, 53.0
20.00000, 44.0
20.04000, 52.0
20.08000, 54.0
20.12000, 58.0
20.16000, 42.0
20.20000, 50.0
20.24000, 44.0
20.28000, 36.0
20.32000, 36.0
20.36000, 44.0
20.40000, 43.0
20.44000, 49.0
20.48000, 33.0
20.52000, 47.0
20.56000, 52.0
20.60000, 42.0
20.64000, 40.0
20.68000, 44.0
20.72000, 42.0
20.76000, 43.0
20.80000, 42.0
20.84000, 37.0
20.88000, 44.0
20.92000, 47.0
20.96000, 34.0
21.00000, 31.0
21.04000, 38.0
21.08000, 36.0
21.12000, 43.0
21.16000, 31.0
21.20000, 30.0
21.24000, 32.0
21.28000, 40.0
21.32000, 35.0
21.36000, 32.0
21.40000, 30.0
21.44000, 37.0
21.48000, 35.0
21.52000, 31.0
21.56000, 33.0
21.60000, 29.0
21.64000, 27.0
21.68000, 31.0
21.72000, 41.0
21.76000, 31.0
21.80000, 21.0
21.84000, 37.0
21.88000, 28.0
21.92000, 30.0
21.96000, 27.0
22.00000, 25.0
22.04000, 33.0
22.08000, 29.0
22.12000, 30.0
22.16000, 23.0
22.20000, 30.0
22.24000, 26.0
22.28000, 30.0
22.32000, 25.0
22.36000, 35.0
22.40000, 24.0
22.44000, 28.0
22.48000, 24.0
22.52000, 27.0
22.56000, 17.0
22.60000, 24.0
22.64000, 24.0
22.68000, 20.0
22.72000, 17.0
22.76000, 15.0
22.80000, 26.0
22.84000, 31.0
22.88000, 26.0
22.92000, 25.0
22.96000, 22.0
23.00000, 26.0
23.04000, 22.0
23.08000, 19.0
23.12000, 23.0
23.16000, 22.0
23.20000, 26.0
23.24000, 24.0
23.28000, 14.0
23.32000, 18.0
23.36000, 21.0
23.40000, 18.0
23.44000, 21.0
23.48000, 19.0
23.52000, 21.0
23.56000, 15.0
23.60000, 14.0
23.64000, 17.0
23.68000, 20.0
23.72000, 14.0
23.76000, 19.0
23.80000, 28.0
23.84000, 19.0
23.88000, 18.0
23.92000, 21.0
23.96000, 15.0
24.00000, 17.0
24.04000, 13.0
24.08000, 14.0
24.12000, 8.0
24.16000, 15.0
24.20000, 14.0
24.24000, 18.0
24.28000, 20.0
24.32000, 17.0
24.36000, 19.0
24.40000, 13.0
24.44000, 13.0
24.48000, 10.0
24.52000, 13.0
24.56000, 18.0
24.60000, 7.0
24.64000, 22.0
24.68000, 16.0
24.72000, 13.0
24.76000, 14.0
24.80000, 10.0
24.84000, 15.0
24.88000, 14.0
24.92000, 12.0
24.96000, 15.0
25.00000, 13.0
25.04000, 11.0
25.08000, 12.0
25.12000, 13.0
25.16000, 9.0
25.20000, 13.0
25.24000, 10.0
25.28000, 12.0
25.32000, 11.0
25.36000, 8.0
25.40000, 9.0
25.44000, 10.0
25.48000, 8.0
25.52000, 15.0
25.56000, 7.0
25.60000, 12.0
25.64000, 15.0
25.68000, 7.0
25.72000, 9.0
25.76000, 7.0
25.80000, 10.0
25.84000, 7.0
25.88000, 10.0
25.92000, 7.0
25.96000, 4.0
26.00000, 11.0
26.04000, 7.0
26.08000, 11.0
26.12000, 7.0
26.16000, 8.0
26.20000, 6.0
26.24000, 8.0
26.28000, 4.0
26.32000, 4.0
26.36000, 8.0
26.40000, 5.0
26.44000, 8.0
26.48000, 5.0
26.52000, 4.0
26.56000, 9.0
26.60000, 9.0
26.64000, 7.0
26.68000, 4.0
26.72000, 6.0
26.76000, 4.0
26.80000, 6.0
26.84000, 3.0
26.88000, 4.0
26.92000, 6.0
26.96000, 9.0
27.00000, 2.0
27.04000, 6.0
27.08000, 5.0
27.12000, 3.0
27.16000, 7.0
27.20000, 7.0
27.24000, 1.0
27.28000, 7.0
27.32000, 5.0
27.36000, 10.0
27.40000, 3.0
27.44000, 7.0
27.48000, 3.0
27.52000, 4.0
27.56000, 5.0
27.60000, 1.0
27.64000, 3.0
27.68000, 2.0
27.72000, 3.0
27.76000, 6.0
27.80000, 3.0
27.84000, 6.0
27.88000, 5.0
27.92000, 3.0
27.96000, 3.0
28.00000, 1.0
28.04000, 6.0
28.08000, 2.0
28.12000, 1.0
28.16000, 5.0
28.20000, 3.0
28.24000, 2.0
28.28000, 2.0
28.32000, 2.0
28.36000, 0.0
28.40000, 3.0
28.44000, 3.0
28.48000, 0.0
28.52000, 5.0
28.56000, 1.0
28.60000, 3.0
28.64000, 2.0
28.68000, 1.0
28.72000, 3.0
28.76000, 2.0
28.80000, 1.0
28.84000, 3.0
28.88000, 2.0
28.92000, 0.0
28.96000, 2.0
29.00000, 2.0
29.04000, 0.0
29.08000, 0.0
29.12000, 0.0
29.16000, 3.0
29.20000, 2.0
29.24000, 2.0
29.28000, 2.0
29.32000, 2.0
29.36000, 1.0
29.40000, 2.0
29.44000, 2.0
29.48000, 1.0
29.52000, 0.0
29.56000, 1.0
29.60000, 1.0
29.64000, 0.0
29.68000, 1.0
29.72000, 1.0
29.76000, 3.0
29.80000, 1.0
29.84000, 0.0
29.88000, 1.0
29.92000, 0.0
29.96000, 0.0
30.00000, 1.0
30.04000, 0.0
30.08000, 1.0
30.12000, 0.0
30.16000, 0.0
30.20000, 0.0
30.24000, 1.0
30.28000, 0.0
30.32000, 0.0
30.36000, 0.0
30.40000, 0.0
30.44000, 0.0
30.48000, 0.0
30.52000, 0.0
30.56000, 0.0
30.60000, 0.0
30.64000, 0.0
30.68000, 1.0
30.72000, 0.0
30.76000, 0.0
30.80000, 0.0
30.84000, 1.0
30.88000, 0.0
30.92000, 0.0
30.96000, 0.0
31.00000, 0.0
31.04000, 0.0
31.08000, 1.0
31.12000, 0.0
31.16000, 0.0
31.20000, 0.0
31.24000, 0.0
31.28000, 0.0
31.32000, 0.0
31.36000, 0.0
31.40000, 1.0
31.44000, 0.0
31.48000, 0.0
31.52000, 0.0
31.56000, 0.0
31.60000, 0.0
31.64000, 0.0
31.68000, 0.0
31.72000, 0.0
31.76000, 0.0
31.80000, 0.0
31.84000, 0.0
31.88000, 0.0
31.92000, 0.0
31.96000, 0.0
32.00000, 0.0
32.04000, 0.0
32.08000, 0.0
32.12000, 0.0
32.16000, 0.0
32.20000, 0.0
32.24000, 0.0
32.28000, 0.0
32.32000, 0.0
32.36000, 0.0
32.40000, 0.0
32.44000, 0.0
32.48000, 0.0
32.52000, 0.0
32.56000, 0.0
32.60000, 0.0
32.64000, 0.0
32.68000, 0.0
32.72000, 0.0
32.76000, 0.0
32.80000, 0.0
32.84000, 0.0
32.88000, 0.0
32.92000, 0.0
32.96000, 0.0
33.00000, 0.0
33.04000, 0.0
33.08000, 0.0
33.12000, 0.0
33.16000, 0.0
33.20000, 0.0
33.24000, 0.0
33.28000, 0.0
33.32000, 0.0
33.36000, 0.0
33.40000, 0.0
33.44000, 0.0
33.48000, 0.0
33.52000, 0.0
33.56000, 0.0
33.60000, 0.0
33.64000, 0.0
33.68000, 0.0
33.72000, 0.0
33.76000, 0.0
33.80000, 0.0
33.84000, 0.0
33.88000, 0.0
33.92000, 0.0
33.96000, 0.0
34.00000, 0.0
34.04000, 0.0
34.08000, 0.0
34.12000, 0.0
34.16000, 0.0
34.20000, 0.0
34.24000, 0.0
34.28000, 1.0
34.32000, 0.0
34.36000, 0.0
34.40000, 0.0
34.44000, 0.0
34.48000, 0.0
34.52000, 0.0
34.56000, 0.0
34.60000, 0.0
34.64000, 0.0
34.68000, 0.0
34.72000, 0.0
34.76000, 0.0
34.80000, 0.0
34.84000, 0.0
34.88000, 0.0
34.92000, 0.0
34.96000, 0.0
35.00000, 0.0
35.04000, 0.0
35.08000, 0.0
35.12000, 0.0
35.16000, 0.0
35.20000, 0.0
35.24000, 0.0
35.28000, 0.0
35.32000, 0.0
35.36000, 0.0
35.40000, 0.0
35.44000, 0.0
35.48000, 0.0
35.52000, 0.0
35.56000, 0.0
35.60000, 0.0
35.64000, 0.0
35.68000, 0.0
35.72000, 1.0
35.76000, 0.0
35.80000, 0.0
35.84000, 0.0
35.88000, 0.0
35.92000, 0.0
35.96000, 0.0
36.00000, 0.0
36.04000, 0.0
36.08000, 0.0
36.12000, 0.0
36.16000, 0.0
36.20000, 0.0
36.24000, 0.0
36.28000, 0.0
36.32000, 0.0
36.36000, 0.0
36.40000, 0.0
36.44000, 0.0
36.48000, 0.0
36.52000, 0.0
36.56000, 0.0
36.60000, 0.0
36.64000, 0.0
36.68000, 0.0
36.72000, 1.0
36.76000, 0.0
36.80000, 0.0
36.84000, 0.0
36.88000, 0.0
36.92000, 0.0
36.96000, 0.0
37.00000, 0.0
37.04000, 0.0
37.08000, 0.0
37.12000, 0.0
37.16000, 0.0
37.20000, 0.0
37.24000, 0.0
37.28000, 0.0
37.32000, 0.0
37.36000, 0.0
37.40000, 0.0
37.44000, 0.0
37.48000, 0.0
37.52000, 0.0
37.56000, 0.0
37.60000, 0.0
37.64000, 0.0
37.68000, 0.0
37.72000, 0.0
37.76000, 0.0
37.80000, 0.0
37.84000, 0.0
37.88000, 0.0
37.92000, 0.0
37.96000, 0.0
38.00000, 0.0
38.04000, 0.0
38.08000, 0.0
38.12000, 0.0
38.16000, 0.0
38.20000, 0.0
38.24000, 0.0
38.28000, 0.0
38.32000, 0.0
38.36000, 0.0
38.40000, 0.0
38.44000, 0.0
38.48000, 1.0
38.52000, 0.0
38.56000, 0.0
38.60000, 0.0
38.64000, 0.0
38.68000, 0.0
38.72000, 0.0
38.76000, 0.0
38.80000, 0.0
38.84000, 0.0
38.88000, 0.0
38.92000, 0.0
38.96000, 0.0
39.00000, 0.0
39.04000, 0.0
39.08000, 0.0
39.12000, 0.0
39.16000, 0.0
39.20000, 0.0
39.24000, 0.0
39.28000, 0.0
39.32000, 0.0
39.36000, 0.0
39.40000, 0.0
39.44000, 0.0
39.48000, 0.0
39.52000, 0.0
39.56000, 0.0
39.60000, 0.0
39.64000, 0.0
39.68000, 0.0
39.72000, 0.0
39.76000, 0.0
39.80000, 0.0
39.84000, 0.0
39.88000, 0.0
39.92000, 0.0
39.96000, 0.0
40.00000, 0.0
40.04000, 0.0
40.08000, 0.0
40.12000, 0.0
40.16000, 0.0
40.20000, 0.0
40.24000, 0.0
40.28000, 0.0
40.32000, 0.0
40.36000, 0.0
40.40000, 0.0
40.44000, 0.0
40.48000, 0.0
40.52000, 0.0
40.54000, 0.0
#ENDOFDATA   :