File: spectrums WS2 30keV/A11_30keV_300924_A1_3.txt
#FORMAT      : EMSA/MAS Spectral Data File
#VERSION     : 1.0
#TITLE       : A11_10keV_300924_A1_3
#DATE        : 30-SEP-2024
#TIME        : 15:15
#OWNER       :
#NPOINTS     : 2048.0
#NCOLUMNS    : 1.0
#XUNITS      : keV
#YUNITS      : counts
#DATATYPE    : XY
#XPERCHAN    : 0.02
#OFFSET      : -0.4
#SIGNALTYPE  : EDS
#CHOFFSET    : 20.0
#LIVETIME    : 60.013
#REALTIME    : 74.5657
#BEAMKV      : 30.0
#MAGCAM      : 16000.0
#XTILTSTGE   : 0.0
#AZIMANGLE   : 0.0
#ELEVANGLE   : 25.5
#XPOSITION mm: 2.4275
#YPOSITION mm: -0.8455
#ZPOSITION mm: 12.8688
##OXINSTPT   : 2
##OXINSTSTROB: 74.72
##OXINSTELEMS: 30,8,16
##OXINSTLABEL: 30, 8.639, Zn K?1
##OXINSTLABEL: 30, 9.572, Zn K?1
##OXINSTLABEL: 30, 1.012, Zn L?1,2
##OXINSTLABEL: 30, 0.906, Zn L?
##OXINSTLABEL: 30, 0.884, Zn Ll
##OXINSTLABEL: 8, 0.525, O K?1
##OXINSTLABEL: 16, 2.308, S K?1
##OXINSTLABEL: 16, 2.464, S K?1
#SPECTRUM    : Spectral Data Starts Here
-0.40000, 0.0
-0.36000, 0.0
-0.32000, 0.0
-0.28000, 0.0
-0.24000, 0.0
-0.20000, 0.0
-0.16000, 0.0
-0.12000, 0.0
-0.08000, 2.0
-0.04000, 198.0
0.00000, 1374.0
0.04000, 2873.0
0.08000, 2011.0
0.12000, 756.0
0.16000, 618.0
0.20000, 581.0
0.24000, 782.0
0.28000, 859.0
0.32000, 577.0
0.36000, 442.0
0.40000, 617.0
0.44000, 1927.0
0.48000, 7640.0
0.52000, 13253.0
0.56000, 8113.0
0.60000, 1966.0
0.64000, 649.0
0.68000, 592.0
0.72000, 703.0
0.76000, 796.0
0.80000, 898.0
0.84000, 1008.0
0.88000, 1158.0
0.92000, 1280.0
0.96000, 1384.0
1.00000, 1604.0
1.04000, 1749.0
1.08000, 1833.0
1.12000, 2083.0
1.16000, 2129.0
1.20000, 2356.0
1.24000, 2554.0
1.28000, 2746.0
1.32000, 2966.0
1.36000, 3245.0
1.40000, 3700.0
1.44000, 4014.0
1.48000, 4470.0
1.52000, 5276.0
1.56000, 5610.0
1.60000, 8140.0
1.64000, 38796.0
1.68000, 198595.0
1.72000, 476403.0
1.76000, 501765.0
1.80000, 243342.0
1.84000, 68589.0
1.88000, 18192.0
1.92000, 4458.0
1.96000, 1114.0
2.00000, 754.0
2.04000, 707.0
2.08000, 705.0
2.12000, 685.0
2.16000, 720.0
2.20000, 943.0
2.24000, 1610.0
2.28000, 2495.0
2.32000, 2626.0
2.36000, 1864.0
2.40000, 1134.0
2.44000, 970.0
2.48000, 969.0
2.52000, 873.0
2.56000, 859.0
2.60000, 851.0
2.64000, 909.0
2.68000, 909.0
2.72000, 947.0
2.76000, 951.0
2.80000, 962.0
2.84000, 994.0
2.88000, 1002.0
2.92000, 1021.0
2.96000, 1050.0
3.00000, 1087.0
3.04000, 1114.0
3.08000, 1142.0
3.12000, 1143.0
3.16000, 1145.0
3.20000, 1169.0
3.24000, 1249.0
3.28000, 1249.0
3.32000, 1374.0
3.36000, 1757.0
3.40000, 3865.0
3.44000, 8094.0
3.48000, 11350.0
3.52000, 9761.0
3.56000, 5526.0
3.60000, 2843.0
3.64000, 1690.0
3.68000, 1247.0
3.72000, 1171.0
3.76000, 1116.0
3.80000, 1105.0
3.84000, 1207.0
3.88000, 1158.0
3.92000, 1120.0
3.96000, 1164.0
4.00000, 1209.0
4.04000, 1289.0
4.08000, 1184.0
4.12000, 1198.0
4.16000, 1179.0
4.20000, 1120.0
4.24000, 1160.0
4.28000, 1114.0
4.32000, 1136.0
4.36000, 1128.0
4.40000, 1165.0
4.44000, 1158.0
4.48000, 1160.0
4.52000, 1177.0
4.56000, 1096.0
4.60000, 1222.0
4.64000, 1132.0
4.68000, 1073.0
4.72000, 1146.0
4.76000, 1121.0
4.80000, 1143.0
4.84000, 1146.0
4.88000, 1113.0
4.92000, 1127.0
4.96000, 1131.0
5.00000, 1115.0
5.04000, 1055.0
5.08000, 1123.0
5.12000, 1137.0
5.16000, 1170.0
5.20000, 1272.0
5.24000, 1285.0
5.28000, 1228.0
5.32000, 1114.0
5.36000, 1074.0
5.40000, 1064.0
5.44000, 1040.0
5.48000, 1035.0
5.52000, 1037.0
5.56000, 1017.0
5.60000, 1043.0
5.64000, 1036.0
5.68000, 1003.0
5.72000, 1034.0
5.76000, 1004.0
5.80000, 984.0
5.84000, 969.0
5.88000, 990.0
5.92000, 977.0
5.96000, 995.0
6.00000, 976.0
6.04000, 961.0
6.08000, 950.0
6.12000, 974.0
6.16000, 951.0
6.20000, 976.0
6.24000, 948.0
6.28000, 973.0
6.32000, 908.0
6.36000, 959.0
6.40000, 917.0
6.44000, 936.0
6.48000, 907.0
6.52000, 900.0
6.56000, 906.0
6.60000, 848.0
6.64000, 907.0
6.68000, 886.0
6.72000, 853.0
6.76000, 868.0
6.80000, 885.0
6.84000, 834.0
6.88000, 856.0
6.92000, 890.0
6.96000, 861.0
7.00000, 869.0
7.04000, 845.0
7.08000, 822.0
7.12000, 830.0
7.16000, 834.0
7.20000, 809.0
7.24000, 785.0
7.28000, 825.0
7.32000, 778.0
7.36000, 785.0
7.40000, 815.0
7.44000, 829.0
7.48000, 770.0
7.52000, 754.0
7.56000, 743.0
7.60000, 736.0
7.64000, 769.0
7.68000, 765.0
7.72000, 743.0
7.76000, 788.0
7.80000, 759.0
7.84000, 736.0
7.88000, 716.0
7.92000, 745.0
7.96000, 699.0
8.00000, 719.0
8.04000, 721.0
8.08000, 707.0
8.12000, 687.0
8.16000, 694.0
8.20000, 667.0
8.24000, 742.0
8.28000, 795.0
8.32000, 938.0
8.36000, 1043.0
8.40000, 1068.0
8.44000, 974.0
8.48000, 865.0
8.52000, 746.0
8.56000, 695.0
8.60000, 652.0
8.64000, 628.0
8.68000, 636.0
8.72000, 655.0
8.76000, 664.0
8.80000, 639.0
8.84000, 624.0
8.88000, 635.0
8.92000, 611.0
8.96000, 600.0
9.00000, 616.0
9.04000, 637.0
9.08000, 593.0
9.12000, 623.0
9.16000, 590.0
9.20000, 588.0
9.24000, 597.0
9.28000, 564.0
9.32000, 564.0
9.36000, 548.0
9.40000, 557.0
9.44000, 601.0
9.48000, 580.0
9.52000, 567.0
9.56000, 629.0
9.60000, 667.0
9.64000, 689.0
9.68000, 713.0
9.72000, 689.0
9.76000, 625.0
9.80000, 577.0
9.84000, 575.0
9.88000, 592.0
9.92000, 577.0
9.96000, 575.0
10.00000, 566.0
10.04000, 551.0
10.08000, 531.0
10.12000, 528.0
10.16000, 541.0
10.20000, 517.0
10.24000, 482.0
10.28000, 495.0
10.32000, 464.0
10.36000, 492.0
10.40000, 481.0
10.44000, 468.0
10.48000, 476.0
10.52000, 453.0
10.56000, 443.0
10.60000, 466.0
10.64000, 474.0
10.68000, 445.0
10.72000, 448.0
10.76000, 441.0
10.80000, 426.0
10.84000, 435.0
10.88000, 439.0
10.92000, 433.0
10.96000, 434.0
11.00000, 420.0
11.04000, 426.0
11.08000, 427.0
11.12000, 408.0
11.16000, 419.0
11.20000, 405.0
11.24000, 425.0
11.28000, 450.0
11.32000, 434.0
11.36000, 401.0
11.40000, 427.0
11.44000, 388.0
11.48000, 383.0
11.52000, 400.0
11.56000, 396.0
11.60000, 408.0
11.64000, 410.0
11.68000, 375.0
11.72000, 368.0
11.76000, 366.0
11.80000, 363.0
11.84000, 357.0
11.88000, 366.0
11.92000, 349.0
11.96000, 339.0
12.00000, 357.0
12.04000, 353.0
12.08000, 339.0
12.12000, 340.0
12.16000, 333.0
12.20000, 327.0
12.24000, 329.0
12.28000, 333.0
12.32000, 314.0
12.36000, 323.0
12.40000, 326.0
12.44000, 316.0
12.48000, 310.0
12.52000, 317.0
12.56000, 307.0
12.60000, 316.0
12.64000, 294.0
12.68000, 293.0
12.72000, 297.0
12.76000, 284.0
12.80000, 270.0
12.84000, 283.0
12.88000, 291.0
12.92000, 253.0
12.96000, 283.0
13.00000, 283.0
13.04000, 289.0
13.08000, 291.0
13.12000, 269.0
13.16000, 268.0
13.20000, 272.0
13.24000, 257.0
13.28000, 258.0
13.32000, 255.0
13.36000, 250.0
13.40000, 260.0
13.44000, 270.0
13.48000, 243.0
13.52000, 261.0
13.56000, 244.0
13.60000, 241.0
13.64000, 239.0
13.68000, 235.0
13.72000, 235.0
13.76000, 256.0
13.80000, 233.0
13.84000, 236.0
13.88000, 212.0
13.92000, 217.0
13.96000, 212.0
14.00000, 227.0
14.04000, 223.0
14.08000, 225.0
14.12000, 202.0
14.16000, 199.0
14.20000, 200.0
14.24000, 209.0
14.28000, 202.0
14.32000, 214.0
14.36000, 189.0
14.40000, 206.0
14.44000, 194.0
14.48000, 192.0
14.52000, 194.0
14.56000, 198.0
14.60000, 178.0
14.64000, 199.0
14.68000, 192.0
14.72000, 181.0
14.76000, 185.0
14.80000, 182.0
14.84000, 185.0
14.88000, 173.0
14.92000, 174.0
14.96000, 197.0
15.00000, 169.0
15.04000, 165.0
15.08000, 172.0
15.12000, 160.0
15.16000, 182.0
15.20000, 168.0
15.24000, 167.0
15.28000, 162.0
15.32000, 162.0
15.36000, 171.0
15.40000, 156.0
15.44000, 151.0
15.48000, 147.0
15.52000, 164.0
15.56000, 174.0
15.60000, 152.0
15.64000, 152.0
15.68000, 147.0
15.72000, 148.0
15.76000, 152.0
15.80000, 162.0
15.84000, 147.0
15.88000, 142.0
15.92000, 150.0
15.96000, 133.0
16.00000, 154.0
16.04000, 150.0
16.08000, 142.0
16.12000, 133.0
16.16000, 144.0
16.20000, 128.0
16.24000, 128.0
16.28000, 130.0
16.32000, 107.0
16.36000, 110.0
16.40000, 121.0
16.44000, 116.0
16.48000, 119.0
16.52000, 113.0
16.56000, 106.0
16.60000, 122.0
16.64000, 116.0
16.68000, 118.0
16.72000, 115.0
16.76000, 118.0
16.80000, 109.0
16.84000, 118.0
16.88000, 108.0
16.92000, 100.0
16.96000, 98.0
17.00000, 111.0
17.04000, 109.0
17.08000, 98.0
17.12000, 109.0
17.16000, 106.0
17.20000, 97.0
17.24000, 89.0
17.28000, 101.0
17.32000, 96.0
17.36000, 102.0
17.40000, 111.0
17.44000, 90.0
17.48000, 97.0
17.52000, 102.0
17.56000, 99.0
17.60000, 94.0
17.64000, 96.0
17.68000, 98.0
17.72000, 88.0
17.76000, 93.0
17.80000, 95.0
17.84000, 83.0
17.88000, 68.0
17.92000, 85.0
17.96000, 80.0
18.00000, 83.0
18.04000, 81.0
18.08000, 84.0
18.12000, 77.0
18.16000, 87.0
18.20000, 86.0
18.24000, 82.0
18.28000, 77.0
18.32000, 73.0
18.36000, 78.0
18.40000, 75.0
18.44000, 80.0
18.48000, 73.0
18.52000, 59.0
18.56000, 67.0
18.60000, 62.0
18.64000, 74.0
18.68000, 67.0
18.72000, 65.0
18.76000, 72.0
18.80000, 71.0
18.84000, 69.0
18.88000, 66.0
18.92000, 65.0
18.96000, 73.0
19.00000, 60.0
19.04000, 66.0
19.08000, 63.0
19.12000, 65.0
19.16000, 67.0
19.20000, 52.0
19.24000, 56.0
19.28000, 64.0
19.32000, 62.0
19.36000, 59.0
19.40000, 65.0
19.44000, 62.0
19.48000, 49.0
19.52000, 59.0
19.56000, 51.0
19.60000, 58.0
19.64000, 52.0
19.68000, 46.0
19.72000, 55.0
19.76000, 51.0
19.80000, 57.0
19.84000, 47.0
19.88000, 44.0
19.92000, 50.0
19.96000, 51.0
20.00000, 55.0
20.04000, 51.0
20.08000, 55.0
20.12000, 49.0
20.16000, 47.0
20.20000, 44.0
20.24000, 44.0
20.28000, 47.0
20.32000, 37.0
20.36000, 48.0
20.40000, 49.0
20.44000, 53.0
20.48000, 42.0
20.52000, 34.0
20.56000, 41.0
20.60000, 42.0
20.64000, 33.0
20.68000, 41.0
20.72000, 39.0
20.76000, 39.0
20.80000, 36.0
20.84000, 45.0
20.88000, 38.0
20.92000, 31.0
20.96000, 46.0
21.00000, 40.0
21.04000, 31.0
21.08000, 39.0
21.12000, 36.0
21.16000, 45.0
21.20000, 29.0
21.24000, 25.0
21.28000, 28.0
21.32000, 38.0
21.36000, 34.0
21.40000, 26.0
21.44000, 39.0
21.48000, 35.0
21.52000, 37.0
21.56000, 25.0
21.60000, 31.0
21.64000, 27.0
21.68000, 34.0
21.72000, 32.0
21.76000, 36.0
21.80000, 21.0
21.84000, 26.0
21.88000, 27.0
21.92000, 25.0
21.96000, 29.0
22.00000, 29.0
22.04000, 19.0
22.08000, 26.0
22.12000, 21.0
22.16000, 23.0
22.20000, 26.0
22.24000, 34.0
22.28000, 29.0
22.32000, 28.0
22.36000, 27.0
22.40000, 31.0
22.44000, 24.0
22.48000, 24.0
22.52000, 28.0
22.56000, 19.0
22.60000, 22.0
22.64000, 18.0
22.68000, 24.0
22.72000, 23.0
22.76000, 25.0
22.80000, 21.0
22.84000, 17.0
22.88000, 32.0
22.92000, 21.0
22.96000, 24.0
23.00000, 23.0
23.04000, 20.0
23.08000, 25.0
23.12000, 23.0
23.16000, 11.0
23.20000, 21.0
23.24000, 20.0
23.28000, 18.0
23.32000, 19.0
23.36000, 19.0
23.40000, 17.0
23.44000, 24.0
23.48000, 23.0
23.52000, 19.0
23.56000, 20.0
23.60000, 14.0
23.64000, 19.0
23.68000, 15.0
23.72000, 11.0
23.76000, 18.0
23.80000, 14.0
23.84000, 18.0
23.88000, 12.0
23.92000, 14.0
23.96000, 15.0
24.00000, 14.0
24.04000, 17.0
24.08000, 18.0
24.12000, 13.0
24.16000, 12.0
24.20000, 14.0
24.24000, 18.0
24.28000, 12.0
24.32000, 9.0
24.36000, 13.0
24.40000, 13.0
24.44000, 16.0
24.48000, 14.0
24.52000, 17.0
24.56000, 17.0
24.60000, 15.0
24.64000, 13.0
24.68000, 14.0
24.72000, 10.0
24.76000, 12.0
24.80000, 8.0
24.84000, 8.0
24.88000, 11.0
24.92000, 14.0
24.96000, 14.0
25.00000, 13.0
25.04000, 9.0
25.08000, 13.0
25.12000, 8.0
25.16000, 12.0
25.20000, 11.0
25.24000, 7.0
25.28000, 7.0
25.32000, 9.0
25.36000, 11.0
25.40000, 10.0
25.44000, 9.0
25.48000, 7.0
25.52000, 6.0
25.56000, 11.0
25.60000, 10.0
25.64000, 5.0
25.68000, 11.0
25.72000, 7.0
25.76000, 8.0
25.80000, 7.0
25.84000, 8.0
25.88000, 4.0
25.92000, 5.0
25.96000, 6.0
26.00000, 5.0
26.04000, 9.0
26.08000, 4.0
26.12000, 11.0
26.16000, 6.0
26.20000, 7.0
26.24000, 8.0
26.28000, 7.0
26.32000, 3.0
26.36000, 6.0
26.40000, 8.0
26.44000, 3.0
26.48000, 5.0
26.52000, 5.0
26.56000, 4.0
26.60000, 6.0
26.64000, 4.0
26.68000, 10.0
26.72000, 4.0
26.76000, 6.0
26.80000, 6.0
26.84000, 8.0
26.88000, 3.0
26.92000, 9.0
26.96000, 5.0
27.00000, 2.0
27.04000, 2.0
27.08000, 5.0
27.12000, 5.0
27.16000, 4.0
27.20000, 5.0
27.24000, 5.0
27.28000, 5.0
27.32000, 6.0
27.36000, 7.0
27.40000, 7.0
27.44000, 5.0
27.48000, 6.0
27.52000, 4.0
27.56000, 3.0
27.60000, 3.0
27.64000, 4.0
27.68000, 3.0
27.72000, 6.0
27.76000, 3.0
27.80000, 5.0
27.84000, 3.0
27.88000, 5.0
27.92000, 3.0
27.96000, 4.0
28.00000, 2.0
28.04000, 4.0
28.08000, 4.0
28.12000, 1.0
28.16000, 4.0
28.20000, 3.0
28.24000, 4.0
28.28000, 2.0
28.32000, 2.0
28.36000, 0.0
28.40000, 5.0
28.44000, 2.0
28.48000, 3.0
28.52000, 1.0
28.56000, 1.0
28.60000, 2.0
28.64000, 4.0
28.68000, 4.0
28.72000, 2.0
28.76000, 0.0
28.80000, 1.0
28.84000, 2.0
28.88000, 2.0
28.92000, 2.0
28.96000, 4.0
29.00000, 0.0
29.04000, 3.0
29.08000, 0.0
29.12000, 0.0
29.16000, 1.0
29.20000, 1.0
29.24000, 3.0
29.28000, 1.0
29.32000, 2.0
29.36000, 2.0
29.40000, 1.0
29.44000, 1.0
29.48000, 0.0
29.52000, 2.0
29.56000, 0.0
29.60000, 3.0
29.64000, 0.0
29.68000, 1.0
29.72000, 2.0
29.76000, 1.0
29.80000, 1.0
29.84000, 1.0
29.88000, 0.0
29.92000, 0.0
29.96000, 3.0
30.00000, 0.0
30.04000, 0.0
30.08000, 0.0
30.12000, 0.0
30.16000, 0.0
30.20000, 0.0
30.24000, 1.0
30.28000, 0.0
30.32000, 0.0
30.36000, 0.0
30.40000, 1.0
30.44000, 0.0
30.48000, 1.0
30.52000, 1.0
30.56000, 0.0
30.60000, 0.0
30.64000, 0.0
30.68000, 1.0
30.72000, 0.0
30.76000, 0.0
30.80000, 0.0
30.84000, 1.0
30.88000, 0.0
30.92000, 0.0
30.96000, 1.0
31.00000, 0.0
31.04000, 1.0
31.08000, 0.0
31.12000, 0.0
31.16000, 0.0
31.20000, 0.0
31.24000, 1.0
31.28000, 0.0
31.32000, 0.0
31.36000, 1.0
31.40000, 0.0
31.44000, 0.0
31.48000, 1.0
31.52000, 0.0
31.56000, 0.0
31.60000, 0.0
31.64000, 0.0
31.68000, 0.0
31.72000, 0.0
31.76000, 0.0
31.80000, 1.0
31.84000, 0.0
31.88000, 1.0
31.92000, 1.0
31.96000, 0.0
32.00000, 0.0
32.04000, 1.0
32.08000, 0.0
32.12000, 0.0
32.16000, 0.0
32.20000, 0.0
32.24000, 0.0
32.28000, 0.0
32.32000, 0.0
32.36000, 1.0
32.40000, 0.0
32.44000, 0.0
32.48000, 1.0
32.52000, 0.0
32.56000, 0.0
32.60000, 0.0
32.64000, 0.0
32.68000, 0.0
32.72000, 1.0
32.76000, 0.0
32.80000, 0.0
32.84000, 0.0
32.88000, 0.0
32.92000, 0.0
32.96000, 0.0
33.00000, 0.0
33.04000, 1.0
33.08000, 0.0
33.12000, 0.0
33.16000, 0.0
33.20000, 0.0
33.24000, 0.0
33.28000, 0.0
33.32000, 0.0
33.36000, 0.0
33.40000, 0.0
33.44000, 0.0
33.48000, 0.0
33.52000, 0.0
33.56000, 1.0
33.60000, 0.0
33.64000, 0.0
33.68000, 0.0
33.72000, 0.0
33.76000, 0.0
33.80000, 0.0
33.84000, 0.0
33.88000, 0.0
33.92000, 0.0
33.96000, 0.0
34.00000, 0.0
34.04000, 0.0
34.08000, 0.0
34.12000, 0.0
34.16000, 0.0
34.20000, 0.0
34.24000, 0.0
34.28000, 0.0
34.32000, 0.0
34.36000, 0.0
34.40000, 0.0
34.44000, 0.0
34.48000, 0.0
34.52000, 0.0
34.56000, 0.0
34.60000, 0.0
34.64000, 0.0
34.68000, 0.0
34.72000, 0.0
34.76000, 0.0
34.80000, 0.0
34.84000, 0.0
34.88000, 0.0
34.92000, 0.0
34.96000, 0.0
35.00000, 0.0
35.04000, 0.0
35.08000, 0.0
35.12000, 0.0
35.16000, 0.0
35.20000, 0.0
35.24000, 0.0
35.28000, 0.0
35.32000, 0.0
35.36000, 1.0
35.40000, 0.0
35.44000, 0.0
35.48000, 0.0
35.52000, 0.0
35.56000, 0.0
35.60000, 0.0
35.64000, 0.0
35.68000, 0.0
35.72000, 0.0
35.76000, 0.0
35.80000, 0.0
35.84000, 0.0
35.88000, 0.0
35.92000, 0.0
35.96000, 0.0
36.00000, 0.0
36.04000, 1.0
36.08000, 0.0
36.12000, 0.0
36.16000, 0.0
36.20000, 0.0
36.24000, 0.0
36.28000, 0.0
36.32000, 0.0
36.36000, 0.0
36.40000, 0.0
36.44000, 0.0
36.48000, 0.0
36.52000, 0.0
36.56000, 0.0
36.60000, 0.0
36.64000, 0.0
36.68000, 0.0
36.72000, 0.0
36.76000, 0.0
36.80000, 0.0
36.84000, 0.0
36.88000, 0.0
36.92000, 0.0
36.96000, 0.0
37.00000, 0.0
37.04000, 0.0
37.08000, 0.0
37.12000, 0.0
37.16000, 0.0
37.20000, 0.0
37.24000, 0.0
37.28000, 0.0
37.32000, 0.0
37.36000, 0.0
37.40000, 0.0
37.44000, 0.0
37.48000, 0.0
37.52000, 0.0
37.56000, 0.0
37.60000, 0.0
37.64000, 0.0
37.68000, 0.0
37.72000, 0.0
37.76000, 0.0
37.80000, 0.0
37.84000, 0.0
37.88000, 0.0
37.92000, 0.0
37.96000, 0.0
38.00000, 0.0
38.04000, 0.0
38.08000, 0.0
38.12000, 0.0
38.16000, 0.0
38.20000, 0.0
38.24000, 0.0
38.28000, 0.0
38.32000, 0.0
38.36000, 0.0
38.40000, 0.0
38.44000, 0.0
38.48000, 0.0
38.52000, 0.0
38.56000, 0.0
38.60000, 0.0
38.64000, 0.0
38.68000, 0.0
38.72000, 0.0
38.76000, 0.0
38.80000, 0.0
38.84000, 0.0
38.88000, 0.0
38.92000, 0.0
38.96000, 0.0
39.00000, 0.0
39.04000, 0.0
39.08000, 0.0
39.12000, 0.0
39.16000, 0.0
39.20000, 0.0
39.24000, 0.0
39.28000, 0.0
39.32000, 0.0
39.36000, 0.0
39.40000, 0.0
39.44000, 0.0
39.48000, 0.0
39.52000, 0.0
39.56000, 0.0
39.60000, 0.0
39.64000, 1.0
39.68000, 0.0
39.72000, 0.0
39.76000, 0.0
39.80000, 0.0
39.84000, 0.0
39.88000, 0.0
39.92000, 0.0
39.96000, 0.0
40.00000, 0.0
40.04000, 0.0
40.08000, 0.0
40.12000, 0.0
40.16000, 0.0
40.20000, 0.0
40.24000, 0.0
40.28000, 0.0
40.32000, 0.0
40.36000, 0.0
40.40000, 0.0
40.44000, 0.0
40.48000, 0.0
40.52000, 0.0
40.54000, 0.0
#ENDOFDATA   :