File: spectrums WS2 30keV/B6_30keV_300924_A2_1.txt
#FORMAT      : EMSA/MAS Spectral Data File
#VERSION     : 1.0
#TITLE       : B6_10keV_300924_A2_1
#DATE        : 30-SEP-2024
#TIME        : 15:29
#OWNER       :
#NPOINTS     : 2048.0
#NCOLUMNS    : 1.0
#XUNITS      : keV
#YUNITS      : counts
#DATATYPE    : XY
#XPERCHAN    : 0.02
#OFFSET      : -0.4
#SIGNALTYPE  : EDS
#CHOFFSET    : 20.0
#LIVETIME    : 60.0299
#REALTIME    : 75.2086
#BEAMKV      : 30.0
#MAGCAM      : 3700.0
#XTILTSTGE   : 0.0
#AZIMANGLE   : 0.0
#ELEVANGLE   : 25.5
#XPOSITION mm: 2.0353
#YPOSITION mm: 0.4190
#ZPOSITION mm: 12.8688
##OXINSTPT   : 2
##OXINSTSTROB: 74.68
##OXINSTELEMS: 30,8,16
##OXINSTLABEL: 30, 8.639, Zn K?1
##OXINSTLABEL: 30, 9.572, Zn K?1
##OXINSTLABEL: 30, 1.012, Zn L?1,2
##OXINSTLABEL: 30, 0.906, Zn L?
##OXINSTLABEL: 30, 0.884, Zn Ll
##OXINSTLABEL: 8, 0.525, O K?1
##OXINSTLABEL: 16, 2.308, S K?1
##OXINSTLABEL: 16, 2.464, S K?1
#SPECTRUM    : Spectral Data Starts Here
-0.40000, 0.0
-0.36000, 0.0
-0.32000, 0.0
-0.28000, 0.0
-0.24000, 0.0
-0.20000, 0.0
-0.16000, 0.0
-0.12000, 0.0
-0.08000, 8.0
-0.04000, 207.0
0.00000, 1395.0
0.04000, 2785.0
0.08000, 1942.0
0.12000, 722.0
0.16000, 500.0
0.20000, 549.0
0.24000, 742.0
0.28000, 877.0
0.32000, 549.0
0.36000, 460.0
0.40000, 651.0
0.44000, 2168.0
0.48000, 8862.0
0.52000, 15717.0
0.56000, 9519.0
0.60000, 2239.0
0.64000, 623.0
0.68000, 569.0
0.72000, 662.0
0.76000, 787.0
0.80000, 894.0
0.84000, 1029.0
0.88000, 1152.0
0.92000, 1298.0
0.96000, 1438.0
1.00000, 1587.0
1.04000, 1829.0
1.08000, 1938.0
1.12000, 2122.0
1.16000, 2368.0
1.20000, 2467.0
1.24000, 2634.0
1.28000, 2849.0
1.32000, 3082.0
1.36000, 3412.0
1.40000, 3750.0
1.44000, 4099.0
1.48000, 4779.0
1.52000, 5262.0
1.56000, 5797.0
1.60000, 8519.0
1.64000, 40836.0
1.68000, 206660.0
1.72000, 496567.0
1.76000, 524146.0
1.80000, 253835.0
1.84000, 71288.0
1.88000, 18944.0
1.92000, 4557.0
1.96000, 1137.0
2.00000, 681.0
2.04000, 669.0
2.08000, 692.0
2.12000, 651.0
2.16000, 725.0
2.20000, 889.0
2.24000, 1468.0
2.28000, 1921.0
2.32000, 1917.0
2.36000, 1399.0
2.40000, 1033.0
2.44000, 891.0
2.48000, 908.0
2.52000, 854.0
2.56000, 892.0
2.60000, 857.0
2.64000, 924.0
2.68000, 925.0
2.72000, 940.0
2.76000, 981.0
2.80000, 1047.0
2.84000, 1046.0
2.88000, 1072.0
2.92000, 1078.0
2.96000, 1089.0
3.00000, 1129.0
3.04000, 1148.0
3.08000, 1159.0
3.12000, 1154.0
3.16000, 1225.0
3.20000, 1248.0
3.24000, 1283.0
3.28000, 1322.0
3.32000, 1414.0
3.36000, 1918.0
3.40000, 4126.0
3.44000, 8754.0
3.48000, 12218.0
3.52000, 10442.0
3.56000, 5982.0
3.60000, 2992.0
3.64000, 1767.0
3.68000, 1322.0
3.72000, 1227.0
3.76000, 1140.0
3.80000, 1100.0
3.84000, 1173.0
3.88000, 1140.0
3.92000, 1163.0
3.96000, 1174.0
4.00000, 1184.0
4.04000, 1205.0
4.08000, 1211.0
4.12000, 1195.0
4.16000, 1112.0
4.20000, 1208.0
4.24000, 1153.0
4.28000, 1138.0
4.32000, 1150.0
4.36000, 1137.0
4.40000, 1156.0
4.44000, 1138.0
4.48000, 1129.0
4.52000, 1176.0
4.56000, 1156.0
4.60000, 1114.0
4.64000, 1157.0
4.68000, 1125.0
4.72000, 1115.0
4.76000, 1149.0
4.80000, 1157.0
4.84000, 1124.0
4.88000, 1099.0
4.92000, 1088.0
4.96000, 1108.0
5.00000, 1095.0
5.04000, 1133.0
5.08000, 1155.0
5.12000, 1119.0
5.16000, 1258.0
5.20000, 1293.0
5.24000, 1389.0
5.28000, 1266.0
5.32000, 1195.0
5.36000, 1124.0
5.40000, 1069.0
5.44000, 1035.0
5.48000, 1062.0
5.52000, 1029.0
5.56000, 1040.0
5.60000, 1003.0
5.64000, 1025.0
5.68000, 1046.0
5.72000, 1034.0
5.76000, 970.0
5.80000, 1003.0
5.84000, 1014.0
5.88000, 1011.0
5.92000, 968.0
5.96000, 993.0
6.00000, 978.0
6.04000, 965.0
6.08000, 966.0
6.12000, 952.0
6.16000, 975.0
6.20000, 974.0
6.24000, 934.0
6.28000, 927.0
6.32000, 959.0
6.36000, 908.0
6.40000, 910.0
6.44000, 931.0
6.48000, 912.0
6.52000, 910.0
6.56000, 912.0
6.60000, 874.0
6.64000, 914.0
6.68000, 879.0
6.72000, 883.0
6.76000, 874.0
6.80000, 871.0
6.84000, 873.0
6.88000, 888.0
6.92000, 833.0
6.96000, 859.0
7.00000, 862.0
7.04000, 810.0
7.08000, 808.0
7.12000, 850.0
7.16000, 872.0
7.20000, 817.0
7.24000, 761.0
7.28000, 804.0
7.32000, 818.0
7.36000, 792.0
7.40000, 804.0
7.44000, 788.0
7.48000, 782.0
7.52000, 792.0
7.56000, 751.0
7.60000, 771.0
7.64000, 775.0
7.68000, 759.0
7.72000, 749.0
7.76000, 736.0
7.80000, 734.0
7.84000, 749.0
7.88000, 725.0
7.92000, 740.0
7.96000, 729.0
8.00000, 721.0
8.04000, 697.0
8.08000, 703.0
8.12000, 685.0
8.16000, 714.0
8.20000, 699.0
8.24000, 737.0
8.28000, 768.0
8.32000, 840.0
8.36000, 859.0
8.40000, 870.0
8.44000, 850.0
8.48000, 801.0
8.52000, 652.0
8.56000, 665.0
8.60000, 650.0
8.64000, 632.0
8.68000, 664.0
8.72000, 625.0
8.76000, 635.0
8.80000, 624.0
8.84000, 610.0
8.88000, 611.0
8.92000, 607.0
8.96000, 612.0
9.00000, 594.0
9.04000, 621.0
9.08000, 576.0
9.12000, 604.0
9.16000, 567.0
9.20000, 590.0
9.24000, 577.0
9.28000, 602.0
9.32000, 570.0
9.36000, 606.0
9.40000, 528.0
9.44000, 556.0
9.48000, 565.0
9.52000, 586.0
9.56000, 611.0
9.60000, 580.0
9.64000, 610.0
9.68000, 634.0
9.72000, 606.0
9.76000, 593.0
9.80000, 573.0
9.84000, 531.0
9.88000, 545.0
9.92000, 524.0
9.96000, 545.0
10.00000, 528.0
10.04000, 505.0
10.08000, 506.0
10.12000, 529.0
10.16000, 492.0
10.20000, 506.0
10.24000, 489.0
10.28000, 504.0
10.32000, 476.0
10.36000, 486.0
10.40000, 468.0
10.44000, 482.0
10.48000, 463.0
10.52000, 449.0
10.56000, 468.0
10.60000, 433.0
10.64000, 454.0
10.68000, 454.0
10.72000, 452.0
10.76000, 438.0
10.80000, 449.0
10.84000, 433.0
10.88000, 454.0
10.92000, 420.0
10.96000, 439.0
11.00000, 440.0
11.04000, 420.0
11.08000, 430.0
11.12000, 419.0
11.16000, 422.0
11.20000, 414.0
11.24000, 439.0
11.28000, 408.0
11.32000, 383.0
11.36000, 401.0
11.40000, 409.0
11.44000, 399.0
11.48000, 397.0
11.52000, 389.0
11.56000, 377.0
11.60000, 376.0
11.64000, 386.0
11.68000, 372.0
11.72000, 388.0
11.76000, 377.0
11.80000, 365.0
11.84000, 351.0
11.88000, 327.0
11.92000, 357.0
11.96000, 330.0
12.00000, 369.0
12.04000, 331.0
12.08000, 355.0
12.12000, 338.0
12.16000, 342.0
12.20000, 338.0
12.24000, 341.0
12.28000, 348.0
12.32000, 301.0
12.36000, 321.0
12.40000, 324.0
12.44000, 331.0
12.48000, 306.0
12.52000, 315.0
12.56000, 310.0
12.60000, 326.0
12.64000, 295.0
12.68000, 309.0
12.72000, 281.0
12.76000, 318.0
12.80000, 292.0
12.84000, 294.0
12.88000, 281.0
12.92000, 295.0
12.96000, 278.0
13.00000, 281.0
13.04000, 282.0
13.08000, 260.0
13.12000, 261.0
13.16000, 270.0
13.20000, 272.0
13.24000, 290.0
13.28000, 256.0
13.32000, 267.0
13.36000, 270.0
13.40000, 240.0
13.44000, 266.0
13.48000, 266.0
13.52000, 239.0
13.56000, 247.0
13.60000, 246.0
13.64000, 255.0
13.68000, 254.0
13.72000, 226.0
13.76000, 241.0
13.80000, 216.0
13.84000, 223.0
13.88000, 221.0
13.92000, 244.0
13.96000, 227.0
14.00000, 237.0
14.04000, 224.0
14.08000, 232.0
14.12000, 218.0
14.16000, 206.0
14.20000, 208.0
14.24000, 208.0
14.28000, 208.0
14.32000, 218.0
14.36000, 191.0
14.40000, 196.0
14.44000, 200.0
14.48000, 198.0
14.52000, 208.0
14.56000, 191.0
14.60000, 196.0
14.64000, 192.0
14.68000, 173.0
14.72000, 188.0
14.76000, 187.0
14.80000, 181.0
14.84000, 187.0
14.88000, 174.0
14.92000, 174.0
14.96000, 174.0
15.00000, 175.0
15.04000, 204.0
15.08000, 179.0
15.12000, 167.0
15.16000, 186.0
15.20000, 175.0
15.24000, 176.0
15.28000, 172.0
15.32000, 183.0
15.36000, 155.0
15.40000, 164.0
15.44000, 153.0
15.48000, 160.0
15.52000, 159.0
15.56000, 149.0
15.60000, 140.0
15.64000, 146.0
15.68000, 145.0
15.72000, 148.0
15.76000, 145.0
15.80000, 130.0
15.84000, 125.0
15.88000, 132.0
15.92000, 139.0
15.96000, 140.0
16.00000, 131.0
16.04000, 119.0
16.08000, 129.0
16.12000, 142.0
16.16000, 128.0
16.20000, 128.0
16.24000, 123.0
16.28000, 129.0
16.32000, 130.0
16.36000, 126.0
16.40000, 118.0
16.44000, 125.0
16.48000, 124.0
16.52000, 123.0
16.56000, 133.0
16.60000, 109.0
16.64000, 110.0
16.68000, 130.0
16.72000, 105.0
16.76000, 109.0
16.80000, 102.0
16.84000, 108.0
16.88000, 112.0
16.92000, 114.0
16.96000, 115.0
17.00000, 97.0
17.04000, 101.0
17.08000, 108.0
17.12000, 108.0
17.16000, 101.0
17.20000, 99.0
17.24000, 95.0
17.28000, 90.0
17.32000, 88.0
17.36000, 87.0
17.40000, 102.0
17.44000, 98.0
17.48000, 93.0
17.52000, 91.0
17.56000, 98.0
17.60000, 84.0
17.64000, 94.0
17.68000, 85.0
17.72000, 81.0
17.76000, 98.0
17.80000, 86.0
17.84000, 81.0
17.88000, 87.0
17.92000, 71.0
17.96000, 71.0
18.00000, 85.0
18.04000, 65.0
18.08000, 85.0
18.12000, 76.0
18.16000, 84.0
18.20000, 79.0
18.24000, 67.0
18.28000, 78.0
18.32000, 77.0
18.36000, 79.0
18.40000, 72.0
18.44000, 68.0
18.48000, 62.0
18.52000, 70.0
18.56000, 54.0
18.60000, 66.0
18.64000, 69.0
18.68000, 67.0
18.72000, 68.0
18.76000, 70.0
18.80000, 63.0
18.84000, 57.0
18.88000, 75.0
18.92000, 62.0
18.96000, 64.0
19.00000, 60.0
19.04000, 57.0
19.08000, 62.0
19.12000, 54.0
19.16000, 52.0
19.20000, 58.0
19.24000, 57.0
19.28000, 68.0
19.32000, 49.0
19.36000, 52.0
19.40000, 56.0
19.44000, 53.0
19.48000, 59.0
19.52000, 53.0
19.56000, 49.0
19.60000, 55.0
19.64000, 56.0
19.68000, 50.0
19.72000, 49.0
19.76000, 43.0
19.80000, 48.0
19.84000, 51.0
19.88000, 51.0
19.92000, 40.0
19.96000, 46.0
20.00000, 56.0
20.04000, 45.0
20.08000, 48.0
20.12000, 40.0
20.16000, 48.0
20.20000, 39.0
20.24000, 40.0
20.28000, 52.0
20.32000, 42.0
20.36000, 42.0
20.40000, 44.0
20.44000, 37.0
20.48000, 47.0
20.52000, 44.0
20.56000, 44.0
20.60000, 41.0
20.64000, 41.0
20.68000, 36.0
20.72000, 31.0
20.76000, 37.0
20.80000, 36.0
20.84000, 41.0
20.88000, 38.0
20.92000, 35.0
20.96000, 36.0
21.00000, 30.0
21.04000, 24.0
21.08000, 42.0
21.12000, 31.0
21.16000, 36.0
21.20000, 33.0
21.24000, 30.0
21.28000, 32.0
21.32000, 30.0
21.36000, 33.0
21.40000, 35.0
21.44000, 24.0
21.48000, 26.0
21.52000, 34.0
21.56000, 27.0
21.60000, 25.0
21.64000, 29.0
21.68000, 26.0
21.72000, 38.0
21.76000, 24.0
21.80000, 32.0
21.84000, 27.0
21.88000, 29.0
21.92000, 33.0
21.96000, 37.0
22.00000, 27.0
22.04000, 29.0
22.08000, 29.0
22.12000, 26.0
22.16000, 27.0
22.20000, 25.0
22.24000, 33.0
22.28000, 21.0
22.32000, 23.0
22.36000, 27.0
22.40000, 27.0
22.44000, 27.0
22.48000, 19.0
22.52000, 23.0
22.56000, 19.0
22.60000, 20.0
22.64000, 22.0
22.68000, 20.0
22.72000, 21.0
22.76000, 18.0
22.80000, 18.0
22.84000, 18.0
22.88000, 21.0
22.92000, 22.0
22.96000, 25.0
23.00000, 20.0
23.04000, 18.0
23.08000, 17.0
23.12000, 20.0
23.16000, 19.0
23.20000, 19.0
23.24000, 19.0
23.28000, 21.0
23.32000, 15.0
23.36000, 23.0
23.40000, 16.0
23.44000, 13.0
23.48000, 10.0
23.52000, 13.0
23.56000, 17.0
23.60000, 19.0
23.64000, 17.0
23.68000, 22.0
23.72000, 23.0
23.76000, 17.0
23.80000, 19.0
23.84000, 16.0
23.88000, 19.0
23.92000, 21.0
23.96000, 19.0
24.00000, 14.0
24.04000, 11.0
24.08000, 13.0
24.12000, 16.0
24.16000, 20.0
24.20000, 19.0
24.24000, 16.0
24.28000, 8.0
24.32000, 7.0
24.36000, 13.0
24.40000, 11.0
24.44000, 10.0
24.48000, 10.0
24.52000, 6.0
24.56000, 11.0
24.60000, 8.0
24.64000, 12.0
24.68000, 12.0
24.72000, 10.0
24.76000, 11.0
24.80000, 11.0
24.84000, 7.0
24.88000, 16.0
24.92000, 9.0
24.96000, 10.0
25.00000, 11.0
25.04000, 7.0
25.08000, 11.0
25.12000, 12.0
25.16000, 8.0
25.20000, 14.0
25.24000, 10.0
25.28000, 8.0
25.32000, 6.0
25.36000, 12.0
25.40000, 9.0
25.44000, 9.0
25.48000, 6.0
25.52000, 13.0
25.56000, 13.0
25.60000, 6.0
25.64000, 6.0
25.68000, 8.0
25.72000, 11.0
25.76000, 9.0
25.80000, 8.0
25.84000, 3.0
25.88000, 10.0
25.92000, 12.0
25.96000, 10.0
26.00000, 5.0
26.04000, 7.0
26.08000, 3.0
26.12000, 5.0
26.16000, 6.0
26.20000, 8.0
26.24000, 7.0
26.28000, 10.0
26.32000, 11.0
26.36000, 5.0
26.40000, 7.0
26.44000, 1.0
26.48000, 4.0
26.52000, 4.0
26.56000, 5.0
26.60000, 5.0
26.64000, 6.0
26.68000, 2.0
26.72000, 5.0
26.76000, 4.0
26.80000, 6.0
26.84000, 4.0
26.88000, 2.0
26.92000, 6.0
26.96000, 4.0
27.00000, 3.0
27.04000, 3.0
27.08000, 3.0
27.12000, 7.0
27.16000, 3.0
27.20000, 5.0
27.24000, 8.0
27.28000, 3.0
27.32000, 1.0
27.36000, 4.0
27.40000, 5.0
27.44000, 3.0
27.48000, 1.0
27.52000, 2.0
27.56000, 4.0
27.60000, 6.0
27.64000, 4.0
27.68000, 2.0
27.72000, 5.0
27.76000, 3.0
27.80000, 2.0
27.84000, 3.0
27.88000, 2.0
27.92000, 6.0
27.96000, 2.0
28.00000, 6.0
28.04000, 3.0
28.08000, 3.0
28.12000, 2.0
28.16000, 6.0
28.20000, 2.0
28.24000, 2.0
28.28000, 3.0
28.32000, 2.0
28.36000, 4.0
28.40000, 2.0
28.44000, 2.0
28.48000, 3.0
28.52000, 1.0
28.56000, 3.0
28.60000, 2.0
28.64000, 2.0
28.68000, 4.0
28.72000, 1.0
28.76000, 1.0
28.80000, 2.0
28.84000, 2.0
28.88000, 1.0
28.92000, 4.0
28.96000, 2.0
29.00000, 1.0
29.04000, 3.0
29.08000, 0.0
29.12000, 2.0
29.16000, 1.0
29.20000, 2.0
29.24000, 2.0
29.28000, 1.0
29.32000, 0.0
29.36000, 2.0
29.40000, 0.0
29.44000, 0.0
29.48000, 1.0
29.52000, 2.0
29.56000, 1.0
29.60000, 0.0
29.64000, 1.0
29.68000, 1.0
29.72000, 1.0
29.76000, 2.0
29.80000, 1.0
29.84000, 1.0
29.88000, 0.0
29.92000, 0.0
29.96000, 0.0
30.00000, 0.0
30.04000, 1.0
30.08000, 0.0
30.12000, 0.0
30.16000, 0.0
30.20000, 0.0
30.24000, 1.0
30.28000, 1.0
30.32000, 1.0
30.36000, 0.0
30.40000, 1.0
30.44000, 1.0
30.48000, 0.0
30.52000, 0.0
30.56000, 0.0
30.60000, 0.0
30.64000, 0.0
30.68000, 0.0
30.72000, 0.0
30.76000, 1.0
30.80000, 0.0
30.84000, 0.0
30.88000, 0.0
30.92000, 0.0
30.96000, 0.0
31.00000, 0.0
31.04000, 0.0
31.08000, 0.0
31.12000, 0.0
31.16000, 0.0
31.20000, 0.0
31.24000, 1.0
31.28000, 0.0
31.32000, 1.0
31.36000, 0.0
31.40000, 0.0
31.44000, 1.0
31.48000, 0.0
31.52000, 0.0
31.56000, 0.0
31.60000, 1.0
31.64000, 0.0
31.68000, 0.0
31.72000, 0.0
31.76000, 0.0
31.80000, 0.0
31.84000, 0.0
31.88000, 1.0
31.92000, 0.0
31.96000, 0.0
32.00000, 0.0
32.04000, 0.0
32.08000, 0.0
32.12000, 0.0
32.16000, 0.0
32.20000, 0.0
32.24000, 0.0
32.28000, 0.0
32.32000, 0.0
32.36000, 0.0
32.40000, 0.0
32.44000, 0.0
32.48000, 0.0
32.52000, 0.0
32.56000, 0.0
32.60000, 0.0
32.64000, 0.0
32.68000, 0.0
32.72000, 0.0
32.76000, 1.0
32.80000, 0.0
32.84000, 0.0
32.88000, 0.0
32.92000, 0.0
32.96000, 0.0
33.00000, 0.0
33.04000, 0.0
33.08000, 0.0
33.12000, 0.0
33.16000, 0.0
33.20000, 0.0
33.24000, 0.0
33.28000, 0.0
33.32000, 0.0
33.36000, 0.0
33.40000, 0.0
33.44000, 0.0
33.48000, 1.0
33.52000, 1.0
33.56000, 0.0
33.60000, 0.0
33.64000, 0.0
33.68000, 0.0
33.72000, 0.0
33.76000, 0.0
33.80000, 0.0
33.84000, 0.0
33.88000, 0.0
33.92000, 0.0
33.96000, 0.0
34.00000, 0.0
34.04000, 0.0
34.08000, 1.0
34.12000, 0.0
34.16000, 0.0
34.20000, 0.0
34.24000, 0.0
34.28000, 0.0
34.32000, 0.0
34.36000, 0.0
34.40000, 0.0
34.44000, 0.0
34.48000, 0.0
34.52000, 0.0
34.56000, 0.0
34.60000, 0.0
34.64000, 0.0
34.68000, 0.0
34.72000, 1.0
34.76000, 0.0
34.80000, 0.0
34.84000, 0.0
34.88000, 0.0
34.92000, 1.0
34.96000, 0.0
35.00000, 0.0
35.04000, 0.0
35.08000, 1.0
35.12000, 0.0
35.16000, 0.0
35.20000, 0.0
35.24000, 0.0
35.28000, 0.0
35.32000, 0.0
35.36000, 0.0
35.40000, 0.0
35.44000, 0.0
35.48000, 0.0
35.52000, 0.0
35.56000, 0.0
35.60000, 0.0
35.64000, 0.0
35.68000, 0.0
35.72000, 0.0
35.76000, 0.0
35.80000, 0.0
35.84000, 0.0
35.88000, 0.0
35.92000, 0.0
35.96000, 0.0
36.00000, 0.0
36.04000, 1.0
36.08000, 0.0
36.12000, 0.0
36.16000, 0.0
36.20000, 0.0
36.24000, 0.0
36.28000, 0.0
36.32000, 0.0
36.36000, 1.0
36.40000, 0.0
36.44000, 0.0
36.48000, 0.0
36.52000, 0.0
36.56000, 0.0
36.60000, 0.0
36.64000, 0.0
36.68000, 0.0
36.72000, 0.0
36.76000, 0.0
36.80000, 0.0
36.84000, 0.0
36.88000, 0.0
36.92000, 0.0
36.96000, 0.0
37.00000, 0.0
37.04000, 0.0
37.08000, 0.0
37.12000, 0.0
37.16000, 0.0
37.20000, 0.0
37.24000, 0.0
37.28000, 0.0
37.32000, 0.0
37.36000, 0.0
37.40000, 0.0
37.44000, 0.0
37.48000, 0.0
37.52000, 0.0
37.56000, 0.0
37.60000, 0.0
37.64000, 0.0
37.68000, 0.0
37.72000, 0.0
37.76000, 0.0
37.80000, 0.0
37.84000, 0.0
37.88000, 0.0
37.92000, 0.0
37.96000, 0.0
38.00000, 0.0
38.04000, 0.0
38.08000, 0.0
38.12000, 0.0
38.16000, 0.0
38.20000, 0.0
38.24000, 0.0
38.28000, 0.0
38.32000, 0.0
38.36000, 0.0
38.40000, 0.0
38.44000, 0.0
38.48000, 0.0
38.52000, 0.0
38.56000, 0.0
38.60000, 0.0
38.64000, 0.0
38.68000, 0.0
38.72000, 0.0
38.76000, 0.0
38.80000, 0.0
38.84000, 0.0
38.88000, 0.0
38.92000, 0.0
38.96000, 0.0
39.00000, 0.0
39.04000, 0.0
39.08000, 0.0
39.12000, 0.0
39.16000, 0.0
39.20000, 0.0
39.24000, 0.0
39.28000, 0.0
39.32000, 0.0
39.36000, 0.0
39.40000, 0.0
39.44000, 0.0
39.48000, 0.0
39.52000, 0.0
39.56000, 0.0
39.60000, 1.0
39.64000, 0.0
39.68000, 1.0
39.72000, 0.0
39.76000, 0.0
39.80000, 0.0
39.84000, 0.0
39.88000, 0.0
39.92000, 0.0
39.96000, 0.0
40.00000, 0.0
40.04000, 0.0
40.08000, 0.0
40.12000, 0.0
40.16000, 0.0
40.20000, 0.0
40.24000, 0.0
40.28000, 0.0
40.32000, 0.0
40.36000, 0.0
40.40000, 0.0
40.44000, 0.0
40.48000, 0.0
40.52000, 0.0
40.54000, 0.0
#ENDOFDATA   :