File: spectrums WS2 30keV/B6_30keV_300924_A2_2.txt
#FORMAT      : EMSA/MAS Spectral Data File
#VERSION     : 1.0
#TITLE       : B6_10keV_300924_A2_2
#DATE        : 30-SEP-2024
#TIME        : 15:30
#OWNER       :
#NPOINTS     : 2048.0
#NCOLUMNS    : 1.0
#XUNITS      : keV
#YUNITS      : counts
#DATATYPE    : XY
#XPERCHAN    : 0.02
#OFFSET      : -0.4
#SIGNALTYPE  : EDS
#CHOFFSET    : 20.0
#LIVETIME    : 60.0123
#REALTIME    : 75.2121
#BEAMKV      : 30.0
#MAGCAM      : 3700.0
#XTILTSTGE   : 0.0
#AZIMANGLE   : 0.0
#ELEVANGLE   : 25.5
#XPOSITION mm: 2.0353
#YPOSITION mm: 0.4190
#ZPOSITION mm: 12.8688
##OXINSTPT   : 2
##OXINSTSTROB: 74.68
##OXINSTELEMS: 30,8,16
##OXINSTLABEL: 30, 8.639, Zn K?1
##OXINSTLABEL: 30, 9.572, Zn K?1
##OXINSTLABEL: 30, 1.012, Zn L?1,2
##OXINSTLABEL: 30, 0.906, Zn L?
##OXINSTLABEL: 30, 0.884, Zn Ll
##OXINSTLABEL: 8, 0.525, O K?1
##OXINSTLABEL: 16, 2.308, S K?1
##OXINSTLABEL: 16, 2.464, S K?1
#SPECTRUM    : Spectral Data Starts Here
-0.40000, 0.0
-0.36000, 0.0
-0.32000, 0.0
-0.28000, 0.0
-0.24000, 0.0
-0.20000, 0.0
-0.16000, 0.0
-0.12000, 0.0
-0.08000, 11.0
-0.04000, 213.0
0.00000, 1422.0
0.04000, 2771.0
0.08000, 1922.0
0.12000, 732.0
0.16000, 466.0
0.20000, 543.0
0.24000, 729.0
0.28000, 853.0
0.32000, 576.0
0.36000, 469.0
0.40000, 660.0
0.44000, 2217.0
0.48000, 8808.0
0.52000, 15519.0
0.56000, 9385.0
0.60000, 2173.0
0.64000, 619.0
0.68000, 588.0
0.72000, 702.0
0.76000, 796.0
0.80000, 890.0
0.84000, 1013.0
0.88000, 1187.0
0.92000, 1317.0
0.96000, 1446.0
1.00000, 1646.0
1.04000, 1857.0
1.08000, 1931.0
1.12000, 2137.0
1.16000, 2297.0
1.20000, 2512.0
1.24000, 2585.0
1.28000, 2872.0
1.32000, 3140.0
1.36000, 3385.0
1.40000, 3775.0
1.44000, 4177.0
1.48000, 4776.0
1.52000, 5357.0
1.56000, 5841.0
1.60000, 8475.0
1.64000, 40723.0
1.68000, 206932.0
1.72000, 496871.0
1.76000, 523326.0
1.80000, 253544.0
1.84000, 70887.0
1.88000, 18851.0
1.92000, 4547.0
1.96000, 1140.0
2.00000, 725.0
2.04000, 696.0
2.08000, 690.0
2.12000, 715.0
2.16000, 730.0
2.20000, 956.0
2.24000, 1406.0
2.28000, 1948.0
2.32000, 1882.0
2.36000, 1372.0
2.40000, 949.0
2.44000, 855.0
2.48000, 873.0
2.52000, 885.0
2.56000, 909.0
2.60000, 873.0
2.64000, 945.0
2.68000, 914.0
2.72000, 995.0
2.76000, 992.0
2.80000, 1035.0
2.84000, 1005.0
2.88000, 1061.0
2.92000, 1060.0
2.96000, 1142.0
3.00000, 1123.0
3.04000, 1110.0
3.08000, 1154.0
3.12000, 1250.0
3.16000, 1198.0
3.20000, 1279.0
3.24000, 1288.0
3.28000, 1293.0
3.32000, 1369.0
3.36000, 1942.0
3.40000, 4106.0
3.44000, 8819.0
3.48000, 12400.0
3.52000, 10465.0
3.56000, 5870.0
3.60000, 2983.0
3.64000, 1748.0
3.68000, 1304.0
3.72000, 1232.0
3.76000, 1148.0
3.80000, 1148.0
3.84000, 1150.0
3.88000, 1168.0
3.92000, 1185.0
3.96000, 1161.0
4.00000, 1165.0
4.04000, 1206.0
4.08000, 1218.0
4.12000, 1165.0
4.16000, 1188.0
4.20000, 1187.0
4.24000, 1190.0
4.28000, 1191.0
4.32000, 1145.0
4.36000, 1158.0
4.40000, 1200.0
4.44000, 1142.0
4.48000, 1173.0
4.52000, 1166.0
4.56000, 1099.0
4.60000, 1151.0
4.64000, 1169.0
4.68000, 1165.0
4.72000, 1161.0
4.76000, 1183.0
4.80000, 1158.0
4.84000, 1123.0
4.88000, 1090.0
4.92000, 1139.0
4.96000, 1093.0
5.00000, 1140.0
5.04000, 1125.0
5.08000, 1104.0
5.12000, 1180.0
5.16000, 1203.0
5.20000, 1309.0
5.24000, 1358.0
5.28000, 1235.0
5.32000, 1182.0
5.36000, 1109.0
5.40000, 1029.0
5.44000, 1088.0
5.48000, 1071.0
5.52000, 1062.0
5.56000, 1034.0
5.60000, 1038.0
5.64000, 1006.0
5.68000, 1017.0
5.72000, 1016.0
5.76000, 1044.0
5.80000, 1057.0
5.84000, 1012.0
5.88000, 1025.0
5.92000, 981.0
5.96000, 1015.0
6.00000, 974.0
6.04000, 959.0
6.08000, 950.0
6.12000, 929.0
6.16000, 953.0
6.20000, 947.0
6.24000, 951.0
6.28000, 921.0
6.32000, 974.0
6.36000, 956.0
6.40000, 915.0
6.44000, 945.0
6.48000, 940.0
6.52000, 890.0
6.56000, 900.0
6.60000, 911.0
6.64000, 872.0
6.68000, 896.0
6.72000, 939.0
6.76000, 856.0
6.80000, 880.0
6.84000, 869.0
6.88000, 876.0
6.92000, 836.0
6.96000, 851.0
7.00000, 851.0
7.04000, 856.0
7.08000, 821.0
7.12000, 795.0
7.16000, 814.0
7.20000, 785.0
7.24000, 806.0
7.28000, 799.0
7.32000, 828.0
7.36000, 783.0
7.40000, 780.0
7.44000, 767.0
7.48000, 751.0
7.52000, 751.0
7.56000, 768.0
7.60000, 772.0
7.64000, 777.0
7.68000, 738.0
7.72000, 740.0
7.76000, 737.0
7.80000, 731.0
7.84000, 732.0
7.88000, 733.0
7.92000, 730.0
7.96000, 730.0
8.00000, 708.0
8.04000, 705.0
8.08000, 679.0
8.12000, 699.0
8.16000, 681.0
8.20000, 683.0
8.24000, 682.0
8.28000, 732.0
8.32000, 815.0
8.36000, 893.0
8.40000, 905.0
8.44000, 830.0
8.48000, 765.0
8.52000, 725.0
8.56000, 662.0
8.60000, 650.0
8.64000, 638.0
8.68000, 619.0
8.72000, 623.0
8.76000, 616.0
8.80000, 620.0
8.84000, 640.0
8.88000, 618.0
8.92000, 651.0
8.96000, 614.0
9.00000, 616.0
9.04000, 586.0
9.08000, 585.0
9.12000, 589.0
9.16000, 575.0
9.20000, 576.0
9.24000, 594.0
9.28000, 610.0
9.32000, 578.0
9.36000, 557.0
9.40000, 575.0
9.44000, 567.0
9.48000, 607.0
9.52000, 594.0
9.56000, 600.0
9.60000, 589.0
9.64000, 638.0
9.68000, 655.0
9.72000, 617.0
9.76000, 588.0
9.80000, 558.0
9.84000, 532.0
9.88000, 544.0
9.92000, 561.0
9.96000, 556.0
10.00000, 546.0
10.04000, 554.0
10.08000, 545.0
10.12000, 516.0
10.16000, 518.0
10.20000, 517.0
10.24000, 470.0
10.28000, 459.0
10.32000, 466.0
10.36000, 494.0
10.40000, 483.0
10.44000, 495.0
10.48000, 471.0
10.52000, 445.0
10.56000, 502.0
10.60000, 455.0
10.64000, 454.0
10.68000, 434.0
10.72000, 465.0
10.76000, 462.0
10.80000, 436.0
10.84000, 421.0
10.88000, 436.0
10.92000, 422.0
10.96000, 436.0
11.00000, 440.0
11.04000, 402.0
11.08000, 437.0
11.12000, 407.0
11.16000, 423.0
11.20000, 421.0
11.24000, 433.0
11.28000, 410.0
11.32000, 419.0
11.36000, 406.0
11.40000, 387.0
11.44000, 377.0
11.48000, 389.0
11.52000, 389.0
11.56000, 390.0
11.60000, 395.0
11.64000, 375.0
11.68000, 392.0
11.72000, 383.0
11.76000, 336.0
11.80000, 380.0
11.84000, 363.0
11.88000, 358.0
11.92000, 355.0
11.96000, 363.0
12.00000, 333.0
12.04000, 348.0
12.08000, 352.0
12.12000, 343.0
12.16000, 334.0
12.20000, 332.0
12.24000, 328.0
12.28000, 327.0
12.32000, 336.0
12.36000, 332.0
12.40000, 325.0
12.44000, 316.0
12.48000, 322.0
12.52000, 324.0
12.56000, 305.0
12.60000, 290.0
12.64000, 290.0
12.68000, 283.0
12.72000, 321.0
12.76000, 300.0
12.80000, 324.0
12.84000, 277.0
12.88000, 290.0
12.92000, 278.0
12.96000, 264.0
13.00000, 260.0
13.04000, 273.0
13.08000, 257.0
13.12000, 261.0
13.16000, 254.0
13.20000, 280.0
13.24000, 287.0
13.28000, 276.0
13.32000, 263.0
13.36000, 256.0
13.40000, 249.0
13.44000, 258.0
13.48000, 257.0
13.52000, 244.0
13.56000, 241.0
13.60000, 230.0
13.64000, 249.0
13.68000, 245.0
13.72000, 229.0
13.76000, 230.0
13.80000, 241.0
13.84000, 254.0
13.88000, 228.0
13.92000, 234.0
13.96000, 240.0
14.00000, 218.0
14.04000, 219.0
14.08000, 218.0
14.12000, 222.0
14.16000, 234.0
14.20000, 211.0
14.24000, 220.0
14.28000, 199.0
14.32000, 195.0
14.36000, 203.0
14.40000, 209.0
14.44000, 206.0
14.48000, 201.0
14.52000, 205.0
14.56000, 197.0
14.60000, 194.0
14.64000, 188.0
14.68000, 186.0
14.72000, 185.0
14.76000, 194.0
14.80000, 179.0
14.84000, 179.0
14.88000, 179.0
14.92000, 195.0
14.96000, 188.0
15.00000, 167.0
15.04000, 182.0
15.08000, 178.0
15.12000, 160.0
15.16000, 161.0
15.20000, 158.0
15.24000, 172.0
15.28000, 158.0
15.32000, 151.0
15.36000, 170.0
15.40000, 156.0
15.44000, 152.0
15.48000, 158.0
15.52000, 154.0
15.56000, 145.0
15.60000, 136.0
15.64000, 167.0
15.68000, 155.0
15.72000, 154.0
15.76000, 151.0
15.80000, 143.0
15.84000, 139.0
15.88000, 144.0
15.92000, 152.0
15.96000, 134.0
16.00000, 133.0
16.04000, 141.0
16.08000, 137.0
16.12000, 132.0
16.16000, 135.0
16.20000, 136.0
16.24000, 144.0
16.28000, 133.0
16.32000, 123.0
16.36000, 117.0
16.40000, 131.0
16.44000, 125.0
16.48000, 113.0
16.52000, 126.0
16.56000, 117.0
16.60000, 124.0
16.64000, 110.0
16.68000, 119.0
16.72000, 122.0
16.76000, 109.0
16.80000, 106.0
16.84000, 105.0
16.88000, 102.0
16.92000, 103.0
16.96000, 111.0
17.00000, 117.0
17.04000, 114.0
17.08000, 100.0
17.12000, 104.0
17.16000, 98.0
17.20000, 100.0
17.24000, 94.0
17.28000, 88.0
17.32000, 92.0
17.36000, 89.0
17.40000, 104.0
17.44000, 105.0
17.48000, 93.0
17.52000, 89.0
17.56000, 89.0
17.60000, 93.0
17.64000, 95.0
17.68000, 98.0
17.72000, 85.0
17.76000, 92.0
17.80000, 84.0
17.84000, 81.0
17.88000, 85.0
17.92000, 80.0
17.96000, 81.0
18.00000, 98.0
18.04000, 70.0
18.08000, 70.0
18.12000, 82.0
18.16000, 81.0
18.20000, 73.0
18.24000, 62.0
18.28000, 69.0
18.32000, 61.0
18.36000, 65.0
18.40000, 72.0
18.44000, 79.0
18.48000, 67.0
18.52000, 82.0
18.56000, 68.0
18.60000, 85.0
18.64000, 58.0
18.68000, 66.0
18.72000, 64.0
18.76000, 65.0
18.80000, 62.0
18.84000, 68.0
18.88000, 67.0
18.92000, 69.0
18.96000, 55.0
19.00000, 75.0
19.04000, 62.0
19.08000, 52.0
19.12000, 63.0
19.16000, 76.0
19.20000, 63.0
19.24000, 54.0
19.28000, 52.0
19.32000, 61.0
19.36000, 53.0
19.40000, 71.0
19.44000, 49.0
19.48000, 66.0
19.52000, 52.0
19.56000, 54.0
19.60000, 62.0
19.64000, 53.0
19.68000, 53.0
19.72000, 52.0
19.76000, 54.0
19.80000, 45.0
19.84000, 57.0
19.88000, 50.0
19.92000, 49.0
19.96000, 51.0
20.00000, 49.0
20.04000, 47.0
20.08000, 46.0
20.12000, 52.0
20.16000, 51.0
20.20000, 41.0
20.24000, 48.0
20.28000, 47.0
20.32000, 45.0
20.36000, 41.0
20.40000, 43.0
20.44000, 38.0
20.48000, 41.0
20.52000, 41.0
20.56000, 44.0
20.60000, 37.0
20.64000, 42.0
20.68000, 41.0
20.72000, 42.0
20.76000, 42.0
20.80000, 35.0
20.84000, 37.0
20.88000, 38.0
20.92000, 33.0
20.96000, 41.0
21.00000, 38.0
21.04000, 36.0
21.08000, 37.0
21.12000, 36.0
21.16000, 35.0
21.20000, 39.0
21.24000, 40.0
21.28000, 37.0
21.32000, 24.0
21.36000, 41.0
21.40000, 32.0
21.44000, 26.0
21.48000, 35.0
21.52000, 38.0
21.56000, 23.0
21.60000, 32.0
21.64000, 31.0
21.68000, 25.0
21.72000, 26.0
21.76000, 27.0
21.80000, 22.0
21.84000, 26.0
21.88000, 24.0
21.92000, 25.0
21.96000, 23.0
22.00000, 28.0
22.04000, 29.0
22.08000, 25.0
22.12000, 17.0
22.16000, 27.0
22.20000, 18.0
22.24000, 20.0
22.28000, 24.0
22.32000, 23.0
22.36000, 20.0
22.40000, 23.0
22.44000, 22.0
22.48000, 19.0
22.52000, 28.0
22.56000, 21.0
22.60000, 20.0
22.64000, 22.0
22.68000, 24.0
22.72000, 22.0
22.76000, 15.0
22.80000, 23.0
22.84000, 21.0
22.88000, 20.0
22.92000, 24.0
22.96000, 25.0
23.00000, 23.0
23.04000, 24.0
23.08000, 13.0
23.12000, 16.0
23.16000, 23.0
23.20000, 25.0
23.24000, 25.0
23.28000, 18.0
23.32000, 17.0
23.36000, 13.0
23.40000, 16.0
23.44000, 21.0
23.48000, 17.0
23.52000, 17.0
23.56000, 19.0
23.60000, 20.0
23.64000, 14.0
23.68000, 13.0
23.72000, 14.0
23.76000, 19.0
23.80000, 19.0
23.84000, 21.0
23.88000, 14.0
23.92000, 14.0
23.96000, 12.0
24.00000, 20.0
24.04000, 13.0
24.08000, 14.0
24.12000, 13.0
24.16000, 15.0
24.20000, 19.0
24.24000, 10.0
24.28000, 18.0
24.32000, 14.0
24.36000, 16.0
24.40000, 12.0
24.44000, 11.0
24.48000, 15.0
24.52000, 12.0
24.56000, 19.0
24.60000, 8.0
24.64000, 14.0
24.68000, 13.0
24.72000, 11.0
24.76000, 9.0
24.80000, 12.0
24.84000, 10.0
24.88000, 10.0
24.92000, 10.0
24.96000, 9.0
25.00000, 11.0
25.04000, 9.0
25.08000, 12.0
25.12000, 10.0
25.16000, 14.0
25.20000, 12.0
25.24000, 9.0
25.28000, 13.0
25.32000, 10.0
25.36000, 10.0
25.40000, 11.0
25.44000, 9.0
25.48000, 6.0
25.52000, 6.0
25.56000, 8.0
25.60000, 10.0
25.64000, 8.0
25.68000, 9.0
25.72000, 9.0
25.76000, 8.0
25.80000, 10.0
25.84000, 10.0
25.88000, 6.0
25.92000, 12.0
25.96000, 7.0
26.00000, 9.0
26.04000, 8.0
26.08000, 6.0
26.12000, 5.0
26.16000, 7.0
26.20000, 7.0
26.24000, 8.0
26.28000, 8.0
26.32000, 10.0
26.36000, 5.0
26.40000, 3.0
26.44000, 8.0
26.48000, 3.0
26.52000, 7.0
26.56000, 6.0
26.60000, 9.0
26.64000, 5.0
26.68000, 5.0
26.72000, 4.0
26.76000, 9.0
26.80000, 7.0
26.84000, 4.0
26.88000, 2.0
26.92000, 5.0
26.96000, 5.0
27.00000, 4.0
27.04000, 4.0
27.08000, 4.0
27.12000, 5.0
27.16000, 6.0
27.20000, 1.0
27.24000, 6.0
27.28000, 4.0
27.32000, 3.0
27.36000, 3.0
27.40000, 4.0
27.44000, 3.0
27.48000, 4.0
27.52000, 7.0
27.56000, 2.0
27.60000, 2.0
27.64000, 3.0
27.68000, 4.0
27.72000, 2.0
27.76000, 2.0
27.80000, 3.0
27.84000, 2.0
27.88000, 4.0
27.92000, 2.0
27.96000, 2.0
28.00000, 2.0
28.04000, 2.0
28.08000, 3.0
28.12000, 2.0
28.16000, 1.0
28.20000, 4.0
28.24000, 2.0
28.28000, 1.0
28.32000, 0.0
28.36000, 1.0
28.40000, 3.0
28.44000, 1.0
28.48000, 0.0
28.52000, 3.0
28.56000, 1.0
28.60000, 2.0
28.64000, 2.0
28.68000, 2.0
28.72000, 2.0
28.76000, 3.0
28.80000, 0.0
28.84000, 3.0
28.88000, 3.0
28.92000, 0.0
28.96000, 4.0
29.00000, 2.0
29.04000, 2.0
29.08000, 2.0
29.12000, 2.0
29.16000, 0.0
29.20000, 0.0
29.24000, 2.0
29.28000, 1.0
29.32000, 0.0
29.36000, 1.0
29.40000, 1.0
29.44000, 2.0
29.48000, 1.0
29.52000, 1.0
29.56000, 0.0
29.60000, 1.0
29.64000, 0.0
29.68000, 0.0
29.72000, 0.0
29.76000, 2.0
29.80000, 2.0
29.84000, 0.0
29.88000, 0.0
29.92000, 1.0
29.96000, 1.0
30.00000, 1.0
30.04000, 1.0
30.08000, 0.0
30.12000, 1.0
30.16000, 0.0
30.20000, 1.0
30.24000, 0.0
30.28000, 3.0
30.32000, 0.0
30.36000, 2.0
30.40000, 0.0
30.44000, 1.0
30.48000, 0.0
30.52000, 1.0
30.56000, 0.0
30.60000, 1.0
30.64000, 1.0
30.68000, 0.0
30.72000, 0.0
30.76000, 1.0
30.80000, 0.0
30.84000, 0.0
30.88000, 0.0
30.92000, 0.0
30.96000, 0.0
31.00000, 0.0
31.04000, 2.0
31.08000, 0.0
31.12000, 0.0
31.16000, 0.0
31.20000, 0.0
31.24000, 0.0
31.28000, 0.0
31.32000, 0.0
31.36000, 0.0
31.40000, 0.0
31.44000, 0.0
31.48000, 0.0
31.52000, 0.0
31.56000, 1.0
31.60000, 0.0
31.64000, 0.0
31.68000, 0.0
31.72000, 0.0
31.76000, 0.0
31.80000, 0.0
31.84000, 0.0
31.88000, 0.0
31.92000, 0.0
31.96000, 0.0
32.00000, 0.0
32.04000, 0.0
32.08000, 0.0
32.12000, 0.0
32.16000, 0.0
32.20000, 0.0
32.24000, 0.0
32.28000, 0.0
32.32000, 0.0
32.36000, 0.0
32.40000, 1.0
32.44000, 1.0
32.48000, 0.0
32.52000, 0.0
32.56000, 0.0
32.60000, 0.0
32.64000, 0.0
32.68000, 0.0
32.72000, 0.0
32.76000, 0.0
32.80000, 0.0
32.84000, 0.0
32.88000, 0.0
32.92000, 0.0
32.96000, 0.0
33.00000, 0.0
33.04000, 0.0
33.08000, 0.0
33.12000, 0.0
33.16000, 0.0
33.20000, 0.0
33.24000, 0.0
33.28000, 0.0
33.32000, 0.0
33.36000, 0.0
33.40000, 0.0
33.44000, 0.0
33.48000, 1.0
33.52000, 0.0
33.56000, 0.0
33.60000, 0.0
33.64000, 0.0
33.68000, 0.0
33.72000, 0.0
33.76000, 0.0
33.80000, 0.0
33.84000, 0.0
33.88000, 0.0
33.92000, 0.0
33.96000, 0.0
34.00000, 0.0
34.04000, 0.0
34.08000, 0.0
34.12000, 0.0
34.16000, 0.0
34.20000, 1.0
34.24000, 0.0
34.28000, 0.0
34.32000, 0.0
34.36000, 0.0
34.40000, 0.0
34.44000, 0.0
34.48000, 0.0
34.52000, 0.0
34.56000, 0.0
34.60000, 0.0
34.64000, 0.0
34.68000, 0.0
34.72000, 0.0
34.76000, 0.0
34.80000, 0.0
34.84000, 0.0
34.88000, 0.0
34.92000, 1.0
34.96000, 0.0
35.00000, 0.0
35.04000, 0.0
35.08000, 0.0
35.12000, 0.0
35.16000, 0.0
35.20000, 0.0
35.24000, 0.0
35.28000, 0.0
35.32000, 0.0
35.36000, 0.0
35.40000, 0.0
35.44000, 0.0
35.48000, 0.0
35.52000, 0.0
35.56000, 0.0
35.60000, 1.0
35.64000, 0.0
35.68000, 0.0
35.72000, 0.0
35.76000, 0.0
35.80000, 0.0
35.84000, 0.0
35.88000, 0.0
35.92000, 0.0
35.96000, 0.0
36.00000, 0.0
36.04000, 0.0
36.08000, 0.0
36.12000, 0.0
36.16000, 0.0
36.20000, 0.0
36.24000, 0.0
36.28000, 0.0
36.32000, 0.0
36.36000, 0.0
36.40000, 0.0
36.44000, 0.0
36.48000, 0.0
36.52000, 0.0
36.56000, 0.0
36.60000, 1.0
36.64000, 0.0
36.68000, 0.0
36.72000, 0.0
36.76000, 0.0
36.80000, 0.0
36.84000, 0.0
36.88000, 0.0
36.92000, 0.0
36.96000, 0.0
37.00000, 0.0
37.04000, 0.0
37.08000, 0.0
37.12000, 0.0
37.16000, 0.0
37.20000, 0.0
37.24000, 0.0
37.28000, 0.0
37.32000, 0.0
37.36000, 0.0
37.40000, 0.0
37.44000, 0.0
37.48000, 0.0
37.52000, 0.0
37.56000, 0.0
37.60000, 0.0
37.64000, 0.0
37.68000, 0.0
37.72000, 0.0
37.76000, 0.0
37.80000, 0.0
37.84000, 0.0
37.88000, 0.0
37.92000, 0.0
37.96000, 0.0
38.00000, 0.0
38.04000, 0.0
38.08000, 0.0
38.12000, 0.0
38.16000, 0.0
38.20000, 0.0
38.24000, 0.0
38.28000, 0.0
38.32000, 0.0
38.36000, 0.0
38.40000, 0.0
38.44000, 0.0
38.48000, 0.0
38.52000, 0.0
38.56000, 0.0
38.60000, 0.0
38.64000, 0.0
38.68000, 0.0
38.72000, 0.0
38.76000, 0.0
38.80000, 0.0
38.84000, 0.0
38.88000, 0.0
38.92000, 0.0
38.96000, 0.0
39.00000, 0.0
39.04000, 0.0
39.08000, 1.0
39.12000, 0.0
39.16000, 0.0
39.20000, 0.0
39.24000, 0.0
39.28000, 0.0
39.32000, 0.0
39.36000, 0.0
39.40000, 0.0
39.44000, 0.0
39.48000, 0.0
39.52000, 0.0
39.56000, 0.0
39.60000, 0.0
39.64000, 0.0
39.68000, 0.0
39.72000, 0.0
39.76000, 0.0
39.80000, 0.0
39.84000, 0.0
39.88000, 0.0
39.92000, 0.0
39.96000, 0.0
40.00000, 0.0
40.04000, 0.0
40.08000, 0.0
40.12000, 0.0
40.16000, 0.0
40.20000, 0.0
40.24000, 0.0
40.28000, 0.0
40.32000, 0.0
40.36000, 0.0
40.40000, 0.0
40.44000, 0.0
40.48000, 0.0
40.52000, 0.0
40.54000, 0.0
#ENDOFDATA   :