File: spectrums WS2 30keV/B6_30keV_300924_A1_2.txt
#FORMAT      : EMSA/MAS Spectral Data File
#VERSION     : 1.0
#TITLE       : B6_10keV_300924_A1_2
#DATE        : 30-SEP-2024
#TIME        : 15:25
#OWNER       :
#NPOINTS     : 2048.0
#NCOLUMNS    : 1.0
#XUNITS      : keV
#YUNITS      : counts
#DATATYPE    : XY
#XPERCHAN    : 0.02
#OFFSET      : -0.4
#SIGNALTYPE  : EDS
#CHOFFSET    : 20.0
#LIVETIME    : 60.002
#REALTIME    : 75.1338
#BEAMKV      : 30.0
#MAGCAM      : 3500.0
#XTILTSTGE   : 0.0
#AZIMANGLE   : 0.0
#ELEVANGLE   : 25.5
#XPOSITION mm: 2.0680
#YPOSITION mm: 0.4145
#ZPOSITION mm: 12.8688
##OXINSTPT   : 2
##OXINSTSTROB: 74.73
##OXINSTELEMS: 30,8,16
##OXINSTLABEL: 30, 8.639, Zn K?1
##OXINSTLABEL: 30, 9.572, Zn K?1
##OXINSTLABEL: 30, 1.012, Zn L?1,2
##OXINSTLABEL: 30, 0.906, Zn L?
##OXINSTLABEL: 30, 0.884, Zn Ll
##OXINSTLABEL: 8, 0.525, O K?1
##OXINSTLABEL: 16, 2.308, S K?1
##OXINSTLABEL: 16, 2.464, S K?1
#SPECTRUM    : Spectral Data Starts Here
-0.40000, 0.0
-0.36000, 0.0
-0.32000, 0.0
-0.28000, 0.0
-0.24000, 0.0
-0.20000, 0.0
-0.16000, 0.0
-0.12000, 0.0
-0.08000, 5.0
-0.04000, 202.0
0.00000, 1389.0
0.04000, 2837.0
0.08000, 1916.0
0.12000, 738.0
0.16000, 515.0
0.20000, 557.0
0.24000, 748.0
0.28000, 921.0
0.32000, 586.0
0.36000, 481.0
0.40000, 619.0
0.44000, 2202.0
0.48000, 8955.0
0.52000, 15710.0
0.56000, 9460.0
0.60000, 2144.0
0.64000, 638.0
0.68000, 609.0
0.72000, 701.0
0.76000, 810.0
0.80000, 878.0
0.84000, 1049.0
0.88000, 1181.0
0.92000, 1338.0
0.96000, 1552.0
1.00000, 1577.0
1.04000, 1772.0
1.08000, 1898.0
1.12000, 2151.0
1.16000, 2319.0
1.20000, 2440.0
1.24000, 2648.0
1.28000, 2878.0
1.32000, 3070.0
1.36000, 3336.0
1.40000, 3761.0
1.44000, 4093.0
1.48000, 4699.0
1.52000, 5291.0
1.56000, 5854.0
1.60000, 8604.0
1.64000, 40654.0
1.68000, 205866.0
1.72000, 495628.0
1.76000, 523200.0
1.80000, 253226.0
1.84000, 70631.0
1.88000, 18828.0
1.92000, 4508.0
1.96000, 1137.0
2.00000, 710.0
2.04000, 665.0
2.08000, 668.0
2.12000, 650.0
2.16000, 708.0
2.20000, 927.0
2.24000, 1403.0
2.28000, 2019.0
2.32000, 2047.0
2.36000, 1490.0
2.40000, 1007.0
2.44000, 898.0
2.48000, 867.0
2.52000, 877.0
2.56000, 901.0
2.60000, 889.0
2.64000, 891.0
2.68000, 933.0
2.72000, 946.0
2.76000, 982.0
2.80000, 1006.0
2.84000, 987.0
2.88000, 1039.0
2.92000, 1113.0
2.96000, 1108.0
3.00000, 1096.0
3.04000, 1126.0
3.08000, 1156.0
3.12000, 1175.0
3.16000, 1193.0
3.20000, 1222.0
3.24000, 1289.0
3.28000, 1316.0
3.32000, 1411.0
3.36000, 1933.0
3.40000, 4085.0
3.44000, 8624.0
3.48000, 12356.0
3.52000, 10333.0
3.56000, 5890.0
3.60000, 2979.0
3.64000, 1788.0
3.68000, 1357.0
3.72000, 1142.0
3.76000, 1161.0
3.80000, 1135.0
3.84000, 1144.0
3.88000, 1172.0
3.92000, 1169.0
3.96000, 1194.0
4.00000, 1217.0
4.04000, 1188.0
4.08000, 1206.0
4.12000, 1178.0
4.16000, 1176.0
4.20000, 1166.0
4.24000, 1172.0
4.28000, 1140.0
4.32000, 1184.0
4.36000, 1165.0
4.40000, 1152.0
4.44000, 1184.0
4.48000, 1141.0
4.52000, 1149.0
4.56000, 1146.0
4.60000, 1115.0
4.64000, 1149.0
4.68000, 1185.0
4.72000, 1105.0
4.76000, 1153.0
4.80000, 1173.0
4.84000, 1185.0
4.88000, 1165.0
4.92000, 1092.0
4.96000, 1094.0
5.00000, 1153.0
5.04000, 1145.0
5.08000, 1136.0
5.12000, 1151.0
5.16000, 1198.0
5.20000, 1328.0
5.24000, 1343.0
5.28000, 1233.0
5.32000, 1189.0
5.36000, 1146.0
5.40000, 1030.0
5.44000, 1056.0
5.48000, 1073.0
5.52000, 1067.0
5.56000, 1059.0
5.60000, 1087.0
5.64000, 1005.0
5.68000, 1027.0
5.72000, 997.0
5.76000, 1048.0
5.80000, 1000.0
5.84000, 957.0
5.88000, 1001.0
5.92000, 961.0
5.96000, 1008.0
6.00000, 970.0
6.04000, 1002.0
6.08000, 933.0
6.12000, 968.0
6.16000, 935.0
6.20000, 994.0
6.24000, 926.0
6.28000, 957.0
6.32000, 914.0
6.36000, 899.0
6.40000, 953.0
6.44000, 920.0
6.48000, 928.0
6.52000, 909.0
6.56000, 903.0
6.60000, 886.0
6.64000, 904.0
6.68000, 881.0
6.72000, 896.0
6.76000, 879.0
6.80000, 865.0
6.84000, 882.0
6.88000, 855.0
6.92000, 830.0
6.96000, 856.0
7.00000, 838.0
7.04000, 831.0
7.08000, 817.0
7.12000, 804.0
7.16000, 825.0
7.20000, 827.0
7.24000, 815.0
7.28000, 780.0
7.32000, 797.0
7.36000, 821.0
7.40000, 797.0
7.44000, 810.0
7.48000, 807.0
7.52000, 792.0
7.56000, 764.0
7.60000, 747.0
7.64000, 782.0
7.68000, 745.0
7.72000, 741.0
7.76000, 745.0
7.80000, 753.0
7.84000, 724.0
7.88000, 730.0
7.92000, 761.0
7.96000, 771.0
8.00000, 692.0
8.04000, 707.0
8.08000, 721.0
8.12000, 707.0
8.16000, 692.0
8.20000, 697.0
8.24000, 699.0
8.28000, 744.0
8.32000, 815.0
8.36000, 910.0
8.40000, 902.0
8.44000, 834.0
8.48000, 743.0
8.52000, 696.0
8.56000, 669.0
8.60000, 654.0
8.64000, 639.0
8.68000, 641.0
8.72000, 645.0
8.76000, 616.0
8.80000, 629.0
8.84000, 617.0
8.88000, 588.0
8.92000, 644.0
8.96000, 581.0
9.00000, 590.0
9.04000, 588.0
9.08000, 610.0
9.12000, 591.0
9.16000, 617.0
9.20000, 603.0
9.24000, 587.0
9.28000, 580.0
9.32000, 578.0
9.36000, 546.0
9.40000, 572.0
9.44000, 550.0
9.48000, 585.0
9.52000, 571.0
9.56000, 584.0
9.60000, 604.0
9.64000, 632.0
9.68000, 624.0
9.72000, 594.0
9.76000, 609.0
9.80000, 591.0
9.84000, 538.0
9.88000, 565.0
9.92000, 541.0
9.96000, 550.0
10.00000, 555.0
10.04000, 528.0
10.08000, 499.0
10.12000, 504.0
10.16000, 495.0
10.20000, 488.0
10.24000, 490.0
10.28000, 478.0
10.32000, 490.0
10.36000, 448.0
10.40000, 477.0
10.44000, 465.0
10.48000, 466.0
10.52000, 453.0
10.56000, 462.0
10.60000, 465.0
10.64000, 462.0
10.68000, 445.0
10.72000, 453.0
10.76000, 445.0
10.80000, 426.0
10.84000, 435.0
10.88000, 415.0
10.92000, 430.0
10.96000, 433.0
11.00000, 406.0
11.04000, 416.0
11.08000, 417.0
11.12000, 405.0
11.16000, 429.0
11.20000, 426.0
11.24000, 420.0
11.28000, 436.0
11.32000, 446.0
11.36000, 429.0
11.40000, 402.0
11.44000, 406.0
11.48000, 393.0
11.52000, 424.0
11.56000, 363.0
11.60000, 377.0
11.64000, 383.0
11.68000, 374.0
11.72000, 377.0
11.76000, 348.0
11.80000, 366.0
11.84000, 374.0
11.88000, 356.0
11.92000, 349.0
11.96000, 330.0
12.00000, 368.0
12.04000, 342.0
12.08000, 339.0
12.12000, 299.0
12.16000, 337.0
12.20000, 355.0
12.24000, 369.0
12.28000, 320.0
12.32000, 326.0
12.36000, 345.0
12.40000, 313.0
12.44000, 317.0
12.48000, 314.0
12.52000, 306.0
12.56000, 293.0
12.60000, 321.0
12.64000, 299.0
12.68000, 287.0
12.72000, 301.0
12.76000, 283.0
12.80000, 279.0
12.84000, 307.0
12.88000, 278.0
12.92000, 296.0
12.96000, 282.0
13.00000, 276.0
13.04000, 282.0
13.08000, 268.0
13.12000, 273.0
13.16000, 262.0
13.20000, 274.0
13.24000, 280.0
13.28000, 282.0
13.32000, 248.0
13.36000, 255.0
13.40000, 264.0
13.44000, 224.0
13.48000, 237.0
13.52000, 243.0
13.56000, 241.0
13.60000, 247.0
13.64000, 252.0
13.68000, 233.0
13.72000, 251.0
13.76000, 252.0
13.80000, 235.0
13.84000, 225.0
13.88000, 252.0
13.92000, 223.0
13.96000, 222.0
14.00000, 225.0
14.04000, 215.0
14.08000, 210.0
14.12000, 215.0
14.16000, 213.0
14.20000, 220.0
14.24000, 227.0
14.28000, 198.0
14.32000, 216.0
14.36000, 207.0
14.40000, 207.0
14.44000, 196.0
14.48000, 203.0
14.52000, 200.0
14.56000, 187.0
14.60000, 205.0
14.64000, 196.0
14.68000, 165.0
14.72000, 187.0
14.76000, 182.0
14.80000, 175.0
14.84000, 173.0
14.88000, 175.0
14.92000, 180.0
14.96000, 169.0
15.00000, 164.0
15.04000, 179.0
15.08000, 169.0
15.12000, 165.0
15.16000, 177.0
15.20000, 151.0
15.24000, 173.0
15.28000, 167.0
15.32000, 156.0
15.36000, 149.0
15.40000, 149.0
15.44000, 139.0
15.48000, 161.0
15.52000, 158.0
15.56000, 158.0
15.60000, 149.0
15.64000, 139.0
15.68000, 154.0
15.72000, 134.0
15.76000, 145.0
15.80000, 129.0
15.84000, 146.0
15.88000, 135.0
15.92000, 144.0
15.96000, 136.0
16.00000, 133.0
16.04000, 137.0
16.08000, 124.0
16.12000, 145.0
16.16000, 158.0
16.20000, 136.0
16.24000, 130.0
16.28000, 118.0
16.32000, 135.0
16.36000, 143.0
16.40000, 106.0
16.44000, 122.0
16.48000, 114.0
16.52000, 129.0
16.56000, 124.0
16.60000, 115.0
16.64000, 112.0
16.68000, 127.0
16.72000, 111.0
16.76000, 105.0
16.80000, 115.0
16.84000, 115.0
16.88000, 122.0
16.92000, 101.0
16.96000, 119.0
17.00000, 108.0
17.04000, 108.0
17.08000, 109.0
17.12000, 105.0
17.16000, 105.0
17.20000, 101.0
17.24000, 100.0
17.28000, 81.0
17.32000, 90.0
17.36000, 96.0
17.40000, 96.0
17.44000, 96.0
17.48000, 96.0
17.52000, 98.0
17.56000, 94.0
17.60000, 94.0
17.64000, 95.0
17.68000, 90.0
17.72000, 87.0
17.76000, 80.0
17.80000, 72.0
17.84000, 81.0
17.88000, 84.0
17.92000, 77.0
17.96000, 82.0
18.00000, 86.0
18.04000, 77.0
18.08000, 66.0
18.12000, 77.0
18.16000, 82.0
18.20000, 78.0
18.24000, 80.0
18.28000, 86.0
18.32000, 69.0
18.36000, 72.0
18.40000, 82.0
18.44000, 70.0
18.48000, 70.0
18.52000, 77.0
18.56000, 72.0
18.60000, 66.0
18.64000, 71.0
18.68000, 67.0
18.72000, 80.0
18.76000, 76.0
18.80000, 62.0
18.84000, 67.0
18.88000, 62.0
18.92000, 60.0
18.96000, 59.0
19.00000, 70.0
19.04000, 64.0
19.08000, 61.0
19.12000, 62.0
19.16000, 74.0
19.20000, 58.0
19.24000, 60.0
19.28000, 52.0
19.32000, 52.0
19.36000, 61.0
19.40000, 59.0
19.44000, 63.0
19.48000, 57.0
19.52000, 56.0
19.56000, 49.0
19.60000, 60.0
19.64000, 55.0
19.68000, 51.0
19.72000, 46.0
19.76000, 53.0
19.80000, 51.0
19.84000, 52.0
19.88000, 52.0
19.92000, 43.0
19.96000, 44.0
20.00000, 43.0
20.04000, 43.0
20.08000, 38.0
20.12000, 44.0
20.16000, 42.0
20.20000, 34.0
20.24000, 42.0
20.28000, 44.0
20.32000, 42.0
20.36000, 38.0
20.40000, 44.0
20.44000, 52.0
20.48000, 36.0
20.52000, 40.0
20.56000, 37.0
20.60000, 50.0
20.64000, 48.0
20.68000, 40.0
20.72000, 39.0
20.76000, 37.0
20.80000, 41.0
20.84000, 40.0
20.88000, 33.0
20.92000, 36.0
20.96000, 33.0
21.00000, 36.0
21.04000, 29.0
21.08000, 41.0
21.12000, 30.0
21.16000, 27.0
21.20000, 38.0
21.24000, 38.0
21.28000, 36.0
21.32000, 29.0
21.36000, 37.0
21.40000, 33.0
21.44000, 36.0
21.48000, 26.0
21.52000, 28.0
21.56000, 25.0
21.60000, 35.0
21.64000, 30.0
21.68000, 33.0
21.72000, 30.0
21.76000, 25.0
21.80000, 31.0
21.84000, 33.0
21.88000, 29.0
21.92000, 20.0
21.96000, 26.0
22.00000, 26.0
22.04000, 28.0
22.08000, 27.0
22.12000, 18.0
22.16000, 33.0
22.20000, 28.0
22.24000, 23.0
22.28000, 26.0
22.32000, 21.0
22.36000, 21.0
22.40000, 25.0
22.44000, 23.0
22.48000, 26.0
22.52000, 25.0
22.56000, 22.0
22.60000, 17.0
22.64000, 20.0
22.68000, 28.0
22.72000, 21.0
22.76000, 20.0
22.80000, 18.0
22.84000, 17.0
22.88000, 22.0
22.92000, 21.0
22.96000, 26.0
23.00000, 23.0
23.04000, 26.0
23.08000, 18.0
23.12000, 23.0
23.16000, 19.0
23.20000, 16.0
23.24000, 20.0
23.28000, 21.0
23.32000, 22.0
23.36000, 20.0
23.40000, 13.0
23.44000, 16.0
23.48000, 14.0
23.52000, 17.0
23.56000, 11.0
23.60000, 13.0
23.64000, 14.0
23.68000, 20.0
23.72000, 18.0
23.76000, 14.0
23.80000, 19.0
23.84000, 18.0
23.88000, 14.0
23.92000, 9.0
23.96000, 14.0
24.00000, 13.0
24.04000, 14.0
24.08000, 12.0
24.12000, 16.0
24.16000, 16.0
24.20000, 8.0
24.24000, 13.0
24.28000, 15.0
24.32000, 11.0
24.36000, 9.0
24.40000, 11.0
24.44000, 14.0
24.48000, 14.0
24.52000, 14.0
24.56000, 9.0
24.60000, 16.0
24.64000, 10.0
24.68000, 13.0
24.72000, 16.0
24.76000, 11.0
24.80000, 11.0
24.84000, 12.0
24.88000, 13.0
24.92000, 13.0
24.96000, 9.0
25.00000, 12.0
25.04000, 7.0
25.08000, 9.0
25.12000, 8.0
25.16000, 12.0
25.20000, 10.0
25.24000, 10.0
25.28000, 12.0
25.32000, 6.0
25.36000, 11.0
25.40000, 7.0
25.44000, 8.0
25.48000, 7.0
25.52000, 4.0
25.56000, 9.0
25.60000, 10.0
25.64000, 9.0
25.68000, 11.0
25.72000, 4.0
25.76000, 10.0
25.80000, 8.0
25.84000, 5.0
25.88000, 6.0
25.92000, 5.0
25.96000, 7.0
26.00000, 7.0
26.04000, 3.0
26.08000, 10.0
26.12000, 8.0
26.16000, 8.0
26.20000, 8.0
26.24000, 7.0
26.28000, 3.0
26.32000, 8.0
26.36000, 4.0
26.40000, 7.0
26.44000, 5.0
26.48000, 5.0
26.52000, 5.0
26.56000, 9.0
26.60000, 5.0
26.64000, 5.0
26.68000, 7.0
26.72000, 4.0
26.76000, 6.0
26.80000, 6.0
26.84000, 5.0
26.88000, 6.0
26.92000, 7.0
26.96000, 5.0
27.00000, 6.0
27.04000, 5.0
27.08000, 4.0
27.12000, 6.0
27.16000, 2.0
27.20000, 9.0
27.24000, 4.0
27.28000, 5.0
27.32000, 6.0
27.36000, 4.0
27.40000, 7.0
27.44000, 3.0
27.48000, 5.0
27.52000, 7.0
27.56000, 1.0
27.60000, 3.0
27.64000, 4.0
27.68000, 2.0
27.72000, 5.0
27.76000, 2.0
27.80000, 7.0
27.84000, 2.0
27.88000, 4.0
27.92000, 5.0
27.96000, 2.0
28.00000, 4.0
28.04000, 2.0
28.08000, 5.0
28.12000, 1.0
28.16000, 1.0
28.20000, 3.0
28.24000, 1.0
28.28000, 3.0
28.32000, 3.0
28.36000, 1.0
28.40000, 1.0
28.44000, 5.0
28.48000, 2.0
28.52000, 2.0
28.56000, 1.0
28.60000, 1.0
28.64000, 0.0
28.68000, 1.0
28.72000, 2.0
28.76000, 2.0
28.80000, 2.0
28.84000, 4.0
28.88000, 0.0
28.92000, 0.0
28.96000, 3.0
29.00000, 0.0
29.04000, 4.0
29.08000, 1.0
29.12000, 1.0
29.16000, 2.0
29.20000, 2.0
29.24000, 0.0
29.28000, 0.0
29.32000, 1.0
29.36000, 1.0
29.40000, 2.0
29.44000, 3.0
29.48000, 1.0
29.52000, 1.0
29.56000, 0.0
29.60000, 1.0
29.64000, 1.0
29.68000, 0.0
29.72000, 1.0
29.76000, 0.0
29.80000, 2.0
29.84000, 2.0
29.88000, 1.0
29.92000, 2.0
29.96000, 1.0
30.00000, 0.0
30.04000, 0.0
30.08000, 1.0
30.12000, 0.0
30.16000, 2.0
30.20000, 0.0
30.24000, 0.0
30.28000, 1.0
30.32000, 0.0
30.36000, 0.0
30.40000, 0.0
30.44000, 1.0
30.48000, 0.0
30.52000, 0.0
30.56000, 0.0
30.60000, 0.0
30.64000, 0.0
30.68000, 0.0
30.72000, 0.0
30.76000, 1.0
30.80000, 2.0
30.84000, 3.0
30.88000, 1.0
30.92000, 0.0
30.96000, 1.0
31.00000, 0.0
31.04000, 0.0
31.08000, 0.0
31.12000, 0.0
31.16000, 2.0
31.20000, 0.0
31.24000, 0.0
31.28000, 0.0
31.32000, 1.0
31.36000, 0.0
31.40000, 0.0
31.44000, 0.0
31.48000, 0.0
31.52000, 0.0
31.56000, 1.0
31.60000, 2.0
31.64000, 1.0
31.68000, 0.0
31.72000, 0.0
31.76000, 1.0
31.80000, 0.0
31.84000, 0.0
31.88000, 0.0
31.92000, 1.0
31.96000, 0.0
32.00000, 0.0
32.04000, 0.0
32.08000, 0.0
32.12000, 0.0
32.16000, 0.0
32.20000, 0.0
32.24000, 0.0
32.28000, 0.0
32.32000, 2.0
32.36000, 0.0
32.40000, 0.0
32.44000, 1.0
32.48000, 0.0
32.52000, 0.0
32.56000, 1.0
32.60000, 1.0
32.64000, 0.0
32.68000, 0.0
32.72000, 0.0
32.76000, 0.0
32.80000, 0.0
32.84000, 0.0
32.88000, 0.0
32.92000, 0.0
32.96000, 0.0
33.00000, 0.0
33.04000, 0.0
33.08000, 0.0
33.12000, 0.0
33.16000, 1.0
33.20000, 0.0
33.24000, 0.0
33.28000, 0.0
33.32000, 1.0
33.36000, 1.0
33.40000, 0.0
33.44000, 0.0
33.48000, 0.0
33.52000, 0.0
33.56000, 0.0
33.60000, 0.0
33.64000, 0.0
33.68000, 0.0
33.72000, 0.0
33.76000, 1.0
33.80000, 0.0
33.84000, 0.0
33.88000, 0.0
33.92000, 0.0
33.96000, 1.0
34.00000, 0.0
34.04000, 0.0
34.08000, 0.0
34.12000, 0.0
34.16000, 0.0
34.20000, 0.0
34.24000, 0.0
34.28000, 0.0
34.32000, 0.0
34.36000, 0.0
34.40000, 0.0
34.44000, 0.0
34.48000, 0.0
34.52000, 0.0
34.56000, 1.0
34.60000, 0.0
34.64000, 1.0
34.68000, 0.0
34.72000, 0.0
34.76000, 0.0
34.80000, 0.0
34.84000, 0.0
34.88000, 0.0
34.92000, 0.0
34.96000, 1.0
35.00000, 0.0
35.04000, 0.0
35.08000, 0.0
35.12000, 0.0
35.16000, 0.0
35.20000, 0.0
35.24000, 0.0
35.28000, 0.0
35.32000, 0.0
35.36000, 0.0
35.40000, 0.0
35.44000, 0.0
35.48000, 0.0
35.52000, 0.0
35.56000, 0.0
35.60000, 0.0
35.64000, 0.0
35.68000, 0.0
35.72000, 0.0
35.76000, 0.0
35.80000, 0.0
35.84000, 0.0
35.88000, 0.0
35.92000, 0.0
35.96000, 1.0
36.00000, 0.0
36.04000, 0.0
36.08000, 0.0
36.12000, 0.0
36.16000, 0.0
36.20000, 0.0
36.24000, 0.0
36.28000, 1.0
36.32000, 0.0
36.36000, 0.0
36.40000, 0.0
36.44000, 0.0
36.48000, 0.0
36.52000, 0.0
36.56000, 0.0
36.60000, 0.0
36.64000, 0.0
36.68000, 0.0
36.72000, 0.0
36.76000, 1.0
36.80000, 0.0
36.84000, 0.0
36.88000, 0.0
36.92000, 0.0
36.96000, 0.0
37.00000, 0.0
37.04000, 1.0
37.08000, 0.0
37.12000, 0.0
37.16000, 0.0
37.20000, 0.0
37.24000, 0.0
37.28000, 0.0
37.32000, 0.0
37.36000, 0.0
37.40000, 0.0
37.44000, 0.0
37.48000, 0.0
37.52000, 0.0
37.56000, 0.0
37.60000, 0.0
37.64000, 0.0
37.68000, 0.0
37.72000, 0.0
37.76000, 0.0
37.80000, 0.0
37.84000, 0.0
37.88000, 0.0
37.92000, 0.0
37.96000, 0.0
38.00000, 0.0
38.04000, 0.0
38.08000, 0.0
38.12000, 0.0
38.16000, 0.0
38.20000, 0.0
38.24000, 0.0
38.28000, 0.0
38.32000, 0.0
38.36000, 0.0
38.40000, 0.0
38.44000, 0.0
38.48000, 0.0
38.52000, 0.0
38.56000, 0.0
38.60000, 0.0
38.64000, 0.0
38.68000, 0.0
38.72000, 0.0
38.76000, 0.0
38.80000, 0.0
38.84000, 0.0
38.88000, 0.0
38.92000, 0.0
38.96000, 0.0
39.00000, 0.0
39.04000, 0.0
39.08000, 0.0
39.12000, 0.0
39.16000, 0.0
39.20000, 0.0
39.24000, 0.0
39.28000, 1.0
39.32000, 0.0
39.36000, 0.0
39.40000, 0.0
39.44000, 0.0
39.48000, 0.0
39.52000, 0.0
39.56000, 0.0
39.60000, 0.0
39.64000, 0.0
39.68000, 0.0
39.72000, 0.0
39.76000, 0.0
39.80000, 0.0
39.84000, 0.0
39.88000, 0.0
39.92000, 0.0
39.96000, 0.0
40.00000, 0.0
40.04000, 0.0
40.08000, 0.0
40.12000, 0.0
40.16000, 0.0
40.20000, 0.0
40.24000, 0.0
40.28000, 0.0
40.32000, 0.0
40.36000, 0.0
40.40000, 0.0
40.44000, 0.0
40.48000, 0.0
40.52000, 0.0
40.54000, 0.0
#ENDOFDATA   :