File: spectrums WS2 30keV/B6_30keV_300924_A1_1.txt
#FORMAT      : EMSA/MAS Spectral Data File
#VERSION     : 1.0
#TITLE       : B6_10keV_300924_A1_1
#DATE        : 30-SEP-2024
#TIME        : 15:24
#OWNER       :
#NPOINTS     : 2048.0
#NCOLUMNS    : 1.0
#XUNITS      : keV
#YUNITS      : counts
#DATATYPE    : XY
#XPERCHAN    : 0.02
#OFFSET      : -0.4
#SIGNALTYPE  : EDS
#CHOFFSET    : 20.0
#LIVETIME    : 60.002
#REALTIME    : 75.1265
#BEAMKV      : 30.0
#MAGCAM      : 3500.0
#XTILTSTGE   : 0.0
#AZIMANGLE   : 0.0
#ELEVANGLE   : 25.5
#XPOSITION mm: 2.0680
#YPOSITION mm: 0.4145
#ZPOSITION mm: 12.8688
##OXINSTPT   : 2
##OXINSTSTROB: 74.67
##OXINSTELEMS: 30,8,16
##OXINSTLABEL: 30, 8.639, Zn K?1
##OXINSTLABEL: 30, 9.572, Zn K?1
##OXINSTLABEL: 30, 1.012, Zn L?1,2
##OXINSTLABEL: 30, 0.906, Zn L?
##OXINSTLABEL: 30, 0.884, Zn Ll
##OXINSTLABEL: 8, 0.525, O K?1
##OXINSTLABEL: 16, 2.308, S K?1
##OXINSTLABEL: 16, 2.464, S K?1
#SPECTRUM    : Spectral Data Starts Here
-0.40000, 0.0
-0.36000, 0.0
-0.32000, 0.0
-0.28000, 0.0
-0.24000, 0.0
-0.20000, 0.0
-0.16000, 0.0
-0.12000, 0.0
-0.08000, 6.0
-0.04000, 198.0
0.00000, 1405.0
0.04000, 2797.0
0.08000, 1898.0
0.12000, 750.0
0.16000, 519.0
0.20000, 510.0
0.24000, 706.0
0.28000, 869.0
0.32000, 569.0
0.36000, 426.0
0.40000, 669.0
0.44000, 2162.0
0.48000, 8772.0
0.52000, 15581.0
0.56000, 9300.0
0.60000, 2203.0
0.64000, 639.0
0.68000, 578.0
0.72000, 662.0
0.76000, 767.0
0.80000, 909.0
0.84000, 1046.0
0.88000, 1179.0
0.92000, 1348.0
0.96000, 1448.0
1.00000, 1577.0
1.04000, 1816.0
1.08000, 1945.0
1.12000, 2176.0
1.16000, 2287.0
1.20000, 2454.0
1.24000, 2618.0
1.28000, 2775.0
1.32000, 3071.0
1.36000, 3510.0
1.40000, 3706.0
1.44000, 4106.0
1.48000, 4661.0
1.52000, 5205.0
1.56000, 5865.0
1.60000, 8377.0
1.64000, 40685.0
1.68000, 205966.0
1.72000, 495453.0
1.76000, 521951.0
1.80000, 252626.0
1.84000, 71001.0
1.88000, 18720.0
1.92000, 4646.0
1.96000, 1110.0
2.00000, 709.0
2.04000, 666.0
2.08000, 677.0
2.12000, 662.0
2.16000, 732.0
2.20000, 981.0
2.24000, 1422.0
2.28000, 1980.0
2.32000, 1988.0
2.36000, 1418.0
2.40000, 1004.0
2.44000, 876.0
2.48000, 865.0
2.52000, 873.0
2.56000, 859.0
2.60000, 888.0
2.64000, 911.0
2.68000, 914.0
2.72000, 927.0
2.76000, 968.0
2.80000, 1028.0
2.84000, 1037.0
2.88000, 1094.0
2.92000, 1079.0
2.96000, 1117.0
3.00000, 1115.0
3.04000, 1152.0
3.08000, 1142.0
3.12000, 1191.0
3.16000, 1172.0
3.20000, 1222.0
3.24000, 1306.0
3.28000, 1345.0
3.32000, 1394.0
3.36000, 1923.0
3.40000, 4098.0
3.44000, 8852.0
3.48000, 12104.0
3.52000, 10300.0
3.56000, 5980.0
3.60000, 2964.0
3.64000, 1768.0
3.68000, 1324.0
3.72000, 1173.0
3.76000, 1147.0
3.80000, 1142.0
3.84000, 1157.0
3.88000, 1196.0
3.92000, 1190.0
3.96000, 1185.0
4.00000, 1200.0
4.04000, 1263.0
4.08000, 1249.0
4.12000, 1160.0
4.16000, 1152.0
4.20000, 1194.0
4.24000, 1189.0
4.28000, 1211.0
4.32000, 1174.0
4.36000, 1140.0
4.40000, 1134.0
4.44000, 1114.0
4.48000, 1193.0
4.52000, 1189.0
4.56000, 1191.0
4.60000, 1110.0
4.64000, 1143.0
4.68000, 1148.0
4.72000, 1133.0
4.76000, 1132.0
4.80000, 1122.0
4.84000, 1095.0
4.88000, 1146.0
4.92000, 1093.0
4.96000, 1118.0
5.00000, 1121.0
5.04000, 1152.0
5.08000, 1119.0
5.12000, 1170.0
5.16000, 1224.0
5.20000, 1293.0
5.24000, 1315.0
5.28000, 1265.0
5.32000, 1172.0
5.36000, 1128.0
5.40000, 1073.0
5.44000, 1033.0
5.48000, 1052.0
5.52000, 1052.0
5.56000, 1036.0
5.60000, 1038.0
5.64000, 1050.0
5.68000, 1047.0
5.72000, 998.0
5.76000, 1012.0
5.80000, 1001.0
5.84000, 1013.0
5.88000, 1005.0
5.92000, 1010.0
5.96000, 1002.0
6.00000, 995.0
6.04000, 1017.0
6.08000, 954.0
6.12000, 983.0
6.16000, 966.0
6.20000, 938.0
6.24000, 956.0
6.28000, 909.0
6.32000, 936.0
6.36000, 920.0
6.40000, 893.0
6.44000, 916.0
6.48000, 931.0
6.52000, 951.0
6.56000, 888.0
6.60000, 923.0
6.64000, 886.0
6.68000, 908.0
6.72000, 896.0
6.76000, 849.0
6.80000, 908.0
6.84000, 852.0
6.88000, 874.0
6.92000, 831.0
6.96000, 830.0
7.00000, 866.0
7.04000, 877.0
7.08000, 800.0
7.12000, 859.0
7.16000, 813.0
7.20000, 781.0
7.24000, 798.0
7.28000, 813.0
7.32000, 817.0
7.36000, 803.0
7.40000, 803.0
7.44000, 785.0
7.48000, 780.0
7.52000, 797.0
7.56000, 767.0
7.60000, 744.0
7.64000, 763.0
7.68000, 737.0
7.72000, 735.0
7.76000, 728.0
7.80000, 712.0
7.84000, 724.0
7.88000, 686.0
7.92000, 712.0
7.96000, 735.0
8.00000, 713.0
8.04000, 712.0
8.08000, 691.0
8.12000, 701.0
8.16000, 688.0
8.20000, 673.0
8.24000, 730.0
8.28000, 728.0
8.32000, 768.0
8.36000, 917.0
8.40000, 867.0
8.44000, 822.0
8.48000, 786.0
8.52000, 696.0
8.56000, 653.0
8.60000, 657.0
8.64000, 638.0
8.68000, 629.0
8.72000, 582.0
8.76000, 642.0
8.80000, 629.0
8.84000, 626.0
8.88000, 601.0
8.92000, 620.0
8.96000, 601.0
9.00000, 631.0
9.04000, 606.0
9.08000, 584.0
9.12000, 578.0
9.16000, 602.0
9.20000, 583.0
9.24000, 548.0
9.28000, 572.0
9.32000, 566.0
9.36000, 559.0
9.40000, 547.0
9.44000, 550.0
9.48000, 591.0
9.52000, 579.0
9.56000, 601.0
9.60000, 586.0
9.64000, 651.0
9.68000, 634.0
9.72000, 647.0
9.76000, 577.0
9.80000, 561.0
9.84000, 578.0
9.88000, 559.0
9.92000, 561.0
9.96000, 557.0
10.00000, 551.0
10.04000, 554.0
10.08000, 530.0
10.12000, 514.0
10.16000, 497.0
10.20000, 502.0
10.24000, 501.0
10.28000, 520.0
10.32000, 478.0
10.36000, 479.0
10.40000, 444.0
10.44000, 487.0
10.48000, 500.0
10.52000, 452.0
10.56000, 460.0
10.60000, 467.0
10.64000, 432.0
10.68000, 456.0
10.72000, 443.0
10.76000, 433.0
10.80000, 441.0
10.84000, 467.0
10.88000, 453.0
10.92000, 427.0
10.96000, 425.0
11.00000, 419.0
11.04000, 417.0
11.08000, 398.0
11.12000, 420.0
11.16000, 412.0
11.20000, 388.0
11.24000, 421.0
11.28000, 420.0
11.32000, 394.0
11.36000, 390.0
11.40000, 396.0
11.44000, 392.0
11.48000, 399.0
11.52000, 383.0
11.56000, 359.0
11.60000, 381.0
11.64000, 373.0
11.68000, 372.0
11.72000, 368.0
11.76000, 385.0
11.80000, 346.0
11.84000, 371.0
11.88000, 349.0
11.92000, 323.0
11.96000, 338.0
12.00000, 342.0
12.04000, 337.0
12.08000, 317.0
12.12000, 355.0
12.16000, 364.0
12.20000, 346.0
12.24000, 340.0
12.28000, 354.0
12.32000, 351.0
12.36000, 327.0
12.40000, 320.0
12.44000, 305.0
12.48000, 337.0
12.52000, 308.0
12.56000, 302.0
12.60000, 302.0
12.64000, 300.0
12.68000, 298.0
12.72000, 281.0
12.76000, 327.0
12.80000, 278.0
12.84000, 277.0
12.88000, 271.0
12.92000, 283.0
12.96000, 271.0
13.00000, 277.0
13.04000, 277.0
13.08000, 285.0
13.12000, 275.0
13.16000, 267.0
13.20000, 274.0
13.24000, 271.0
13.28000, 268.0
13.32000, 254.0
13.36000, 286.0
13.40000, 254.0
13.44000, 251.0
13.48000, 260.0
13.52000, 263.0
13.56000, 226.0
13.60000, 255.0
13.64000, 231.0
13.68000, 230.0
13.72000, 241.0
13.76000, 235.0
13.80000, 245.0
13.84000, 254.0
13.88000, 237.0
13.92000, 221.0
13.96000, 242.0
14.00000, 220.0
14.04000, 234.0
14.08000, 233.0
14.12000, 207.0
14.16000, 227.0
14.20000, 214.0
14.24000, 196.0
14.28000, 222.0
14.32000, 201.0
14.36000, 215.0
14.40000, 212.0
14.44000, 224.0
14.48000, 201.0
14.52000, 204.0
14.56000, 200.0
14.60000, 183.0
14.64000, 208.0
14.68000, 185.0
14.72000, 189.0
14.76000, 179.0
14.80000, 178.0
14.84000, 196.0
14.88000, 180.0
14.92000, 177.0
14.96000, 172.0
15.00000, 179.0
15.04000, 177.0
15.08000, 171.0
15.12000, 176.0
15.16000, 172.0
15.20000, 171.0
15.24000, 183.0
15.28000, 178.0
15.32000, 162.0
15.36000, 158.0
15.40000, 150.0
15.44000, 169.0
15.48000, 144.0
15.52000, 147.0
15.56000, 154.0
15.60000, 169.0
15.64000, 170.0
15.68000, 154.0
15.72000, 142.0
15.76000, 138.0
15.80000, 133.0
15.84000, 145.0
15.88000, 147.0
15.92000, 155.0
15.96000, 160.0
16.00000, 135.0
16.04000, 132.0
16.08000, 128.0
16.12000, 141.0
16.16000, 128.0
16.20000, 127.0
16.24000, 128.0
16.28000, 142.0
16.32000, 111.0
16.36000, 119.0
16.40000, 102.0
16.44000, 115.0
16.48000, 127.0
16.52000, 120.0
16.56000, 119.0
16.60000, 118.0
16.64000, 112.0
16.68000, 113.0
16.72000, 131.0
16.76000, 109.0
16.80000, 120.0
16.84000, 108.0
16.88000, 108.0
16.92000, 107.0
16.96000, 101.0
17.00000, 119.0
17.04000, 114.0
17.08000, 106.0
17.12000, 99.0
17.16000, 98.0
17.20000, 109.0
17.24000, 98.0
17.28000, 105.0
17.32000, 94.0
17.36000, 100.0
17.40000, 95.0
17.44000, 103.0
17.48000, 98.0
17.52000, 84.0
17.56000, 91.0
17.60000, 94.0
17.64000, 107.0
17.68000, 85.0
17.72000, 91.0
17.76000, 83.0
17.80000, 97.0
17.84000, 88.0
17.88000, 84.0
17.92000, 89.0
17.96000, 85.0
18.00000, 76.0
18.04000, 81.0
18.08000, 84.0
18.12000, 80.0
18.16000, 80.0
18.20000, 79.0
18.24000, 74.0
18.28000, 83.0
18.32000, 67.0
18.36000, 75.0
18.40000, 78.0
18.44000, 69.0
18.48000, 72.0
18.52000, 73.0
18.56000, 61.0
18.60000, 67.0
18.64000, 64.0
18.68000, 76.0
18.72000, 58.0
18.76000, 70.0
18.80000, 68.0
18.84000, 70.0
18.88000, 65.0
18.92000, 69.0
18.96000, 46.0
19.00000, 62.0
19.04000, 54.0
19.08000, 69.0
19.12000, 49.0
19.16000, 59.0
19.20000, 63.0
19.24000, 70.0
19.28000, 50.0
19.32000, 66.0
19.36000, 65.0
19.40000, 62.0
19.44000, 49.0
19.48000, 48.0
19.52000, 55.0
19.56000, 64.0
19.60000, 47.0
19.64000, 42.0
19.68000, 46.0
19.72000, 53.0
19.76000, 55.0
19.80000, 45.0
19.84000, 47.0
19.88000, 51.0
19.92000, 53.0
19.96000, 48.0
20.00000, 52.0
20.04000, 47.0
20.08000, 44.0
20.12000, 46.0
20.16000, 43.0
20.20000, 40.0
20.24000, 41.0
20.28000, 41.0
20.32000, 42.0
20.36000, 54.0
20.40000, 43.0
20.44000, 37.0
20.48000, 42.0
20.52000, 40.0
20.56000, 38.0
20.60000, 45.0
20.64000, 43.0
20.68000, 40.0
20.72000, 44.0
20.76000, 44.0
20.80000, 48.0
20.84000, 41.0
20.88000, 45.0
20.92000, 35.0
20.96000, 33.0
21.00000, 30.0
21.04000, 39.0
21.08000, 34.0
21.12000, 29.0
21.16000, 35.0
21.20000, 26.0
21.24000, 29.0
21.28000, 29.0
21.32000, 23.0
21.36000, 39.0
21.40000, 27.0
21.44000, 26.0
21.48000, 28.0
21.52000, 35.0
21.56000, 33.0
21.60000, 30.0
21.64000, 28.0
21.68000, 37.0
21.72000, 26.0
21.76000, 27.0
21.80000, 38.0
21.84000, 25.0
21.88000, 29.0
21.92000, 25.0
21.96000, 31.0
22.00000, 26.0
22.04000, 24.0
22.08000, 25.0
22.12000, 26.0
22.16000, 23.0
22.20000, 26.0
22.24000, 25.0
22.28000, 32.0
22.32000, 25.0
22.36000, 25.0
22.40000, 22.0
22.44000, 27.0
22.48000, 22.0
22.52000, 24.0
22.56000, 24.0
22.60000, 21.0
22.64000, 27.0
22.68000, 26.0
22.72000, 25.0
22.76000, 19.0
22.80000, 22.0
22.84000, 19.0
22.88000, 23.0
22.92000, 22.0
22.96000, 26.0
23.00000, 24.0
23.04000, 26.0
23.08000, 23.0
23.12000, 14.0
23.16000, 17.0
23.20000, 21.0
23.24000, 20.0
23.28000, 18.0
23.32000, 16.0
23.36000, 17.0
23.40000, 19.0
23.44000, 22.0
23.48000, 17.0
23.52000, 13.0
23.56000, 17.0
23.60000, 21.0
23.64000, 12.0
23.68000, 15.0
23.72000, 20.0
23.76000, 18.0
23.80000, 18.0
23.84000, 11.0
23.88000, 18.0
23.92000, 17.0
23.96000, 13.0
24.00000, 15.0
24.04000, 16.0
24.08000, 11.0
24.12000, 17.0
24.16000, 13.0
24.20000, 16.0
24.24000, 15.0
24.28000, 16.0
24.32000, 15.0
24.36000, 10.0
24.40000, 12.0
24.44000, 13.0
24.48000, 12.0
24.52000, 16.0
24.56000, 11.0
24.60000, 11.0
24.64000, 9.0
24.68000, 12.0
24.72000, 11.0
24.76000, 9.0
24.80000, 14.0
24.84000, 13.0
24.88000, 13.0
24.92000, 13.0
24.96000, 11.0
25.00000, 12.0
25.04000, 11.0
25.08000, 10.0
25.12000, 8.0
25.16000, 7.0
25.20000, 8.0
25.24000, 9.0
25.28000, 11.0
25.32000, 9.0
25.36000, 7.0
25.40000, 12.0
25.44000, 6.0
25.48000, 10.0
25.52000, 11.0
25.56000, 8.0
25.60000, 5.0
25.64000, 9.0
25.68000, 14.0
25.72000, 8.0
25.76000, 7.0
25.80000, 9.0
25.84000, 10.0
25.88000, 12.0
25.92000, 9.0
25.96000, 6.0
26.00000, 13.0
26.04000, 9.0
26.08000, 6.0
26.12000, 7.0
26.16000, 7.0
26.20000, 7.0
26.24000, 7.0
26.28000, 6.0
26.32000, 6.0
26.36000, 3.0
26.40000, 8.0
26.44000, 4.0
26.48000, 6.0
26.52000, 6.0
26.56000, 8.0
26.60000, 9.0
26.64000, 9.0
26.68000, 8.0
26.72000, 6.0
26.76000, 9.0
26.80000, 5.0
26.84000, 3.0
26.88000, 3.0
26.92000, 4.0
26.96000, 5.0
27.00000, 7.0
27.04000, 3.0
27.08000, 3.0
27.12000, 3.0
27.16000, 3.0
27.20000, 5.0
27.24000, 3.0
27.28000, 5.0
27.32000, 1.0
27.36000, 3.0
27.40000, 3.0
27.44000, 3.0
27.48000, 5.0
27.52000, 5.0
27.56000, 4.0
27.60000, 3.0
27.64000, 4.0
27.68000, 2.0
27.72000, 5.0
27.76000, 2.0
27.80000, 1.0
27.84000, 7.0
27.88000, 4.0
27.92000, 3.0
27.96000, 4.0
28.00000, 3.0
28.04000, 3.0
28.08000, 3.0
28.12000, 4.0
28.16000, 3.0
28.20000, 0.0
28.24000, 3.0
28.28000, 2.0
28.32000, 3.0
28.36000, 5.0
28.40000, 2.0
28.44000, 0.0
28.48000, 2.0
28.52000, 2.0
28.56000, 3.0
28.60000, 4.0
28.64000, 1.0
28.68000, 2.0
28.72000, 2.0
28.76000, 2.0
28.80000, 3.0
28.84000, 3.0
28.88000, 0.0
28.92000, 2.0
28.96000, 3.0
29.00000, 5.0
29.04000, 2.0
29.08000, 2.0
29.12000, 1.0
29.16000, 3.0
29.20000, 1.0
29.24000, 4.0
29.28000, 0.0
29.32000, 0.0
29.36000, 1.0
29.40000, 1.0
29.44000, 0.0
29.48000, 0.0
29.52000, 1.0
29.56000, 1.0
29.60000, 1.0
29.64000, 1.0
29.68000, 0.0
29.72000, 0.0
29.76000, 1.0
29.80000, 1.0
29.84000, 2.0
29.88000, 0.0
29.92000, 1.0
29.96000, 1.0
30.00000, 0.0
30.04000, 1.0
30.08000, 0.0
30.12000, 0.0
30.16000, 0.0
30.20000, 0.0
30.24000, 0.0
30.28000, 0.0
30.32000, 0.0
30.36000, 1.0
30.40000, 0.0
30.44000, 0.0
30.48000, 3.0
30.52000, 0.0
30.56000, 0.0
30.60000, 1.0
30.64000, 0.0
30.68000, 0.0
30.72000, 0.0
30.76000, 0.0
30.80000, 1.0
30.84000, 0.0
30.88000, 0.0
30.92000, 0.0
30.96000, 0.0
31.00000, 0.0
31.04000, 0.0
31.08000, 1.0
31.12000, 0.0
31.16000, 0.0
31.20000, 0.0
31.24000, 0.0
31.28000, 0.0
31.32000, 0.0
31.36000, 0.0
31.40000, 0.0
31.44000, 0.0
31.48000, 0.0
31.52000, 0.0
31.56000, 0.0
31.60000, 0.0
31.64000, 0.0
31.68000, 1.0
31.72000, 1.0
31.76000, 0.0
31.80000, 1.0
31.84000, 0.0
31.88000, 0.0
31.92000, 0.0
31.96000, 0.0
32.00000, 0.0
32.04000, 0.0
32.08000, 0.0
32.12000, 0.0
32.16000, 0.0
32.20000, 0.0
32.24000, 0.0
32.28000, 3.0
32.32000, 0.0
32.36000, 0.0
32.40000, 0.0
32.44000, 0.0
32.48000, 0.0
32.52000, 0.0
32.56000, 0.0
32.60000, 0.0
32.64000, 0.0
32.68000, 1.0
32.72000, 0.0
32.76000, 0.0
32.80000, 0.0
32.84000, 0.0
32.88000, 0.0
32.92000, 0.0
32.96000, 0.0
33.00000, 1.0
33.04000, 0.0
33.08000, 0.0
33.12000, 0.0
33.16000, 0.0
33.20000, 0.0
33.24000, 0.0
33.28000, 0.0
33.32000, 0.0
33.36000, 0.0
33.40000, 0.0
33.44000, 0.0
33.48000, 0.0
33.52000, 0.0
33.56000, 0.0
33.60000, 0.0
33.64000, 1.0
33.68000, 0.0
33.72000, 0.0
33.76000, 0.0
33.80000, 0.0
33.84000, 0.0
33.88000, 0.0
33.92000, 1.0
33.96000, 0.0
34.00000, 0.0
34.04000, 0.0
34.08000, 0.0
34.12000, 1.0
34.16000, 0.0
34.20000, 0.0
34.24000, 0.0
34.28000, 0.0
34.32000, 0.0
34.36000, 1.0
34.40000, 0.0
34.44000, 0.0
34.48000, 0.0
34.52000, 0.0
34.56000, 0.0
34.60000, 0.0
34.64000, 0.0
34.68000, 0.0
34.72000, 0.0
34.76000, 0.0
34.80000, 0.0
34.84000, 0.0
34.88000, 0.0
34.92000, 0.0
34.96000, 0.0
35.00000, 0.0
35.04000, 0.0
35.08000, 0.0
35.12000, 0.0
35.16000, 0.0
35.20000, 1.0
35.24000, 0.0
35.28000, 0.0
35.32000, 0.0
35.36000, 0.0
35.40000, 0.0
35.44000, 0.0
35.48000, 0.0
35.52000, 0.0
35.56000, 0.0
35.60000, 0.0
35.64000, 0.0
35.68000, 0.0
35.72000, 0.0
35.76000, 0.0
35.80000, 0.0
35.84000, 0.0
35.88000, 0.0
35.92000, 0.0
35.96000, 0.0
36.00000, 0.0
36.04000, 0.0
36.08000, 0.0
36.12000, 0.0
36.16000, 0.0
36.20000, 0.0
36.24000, 0.0
36.28000, 0.0
36.32000, 0.0
36.36000, 0.0
36.40000, 0.0
36.44000, 0.0
36.48000, 0.0
36.52000, 0.0
36.56000, 0.0
36.60000, 0.0
36.64000, 0.0
36.68000, 0.0
36.72000, 0.0
36.76000, 0.0
36.80000, 0.0
36.84000, 1.0
36.88000, 0.0
36.92000, 0.0
36.96000, 0.0
37.00000, 1.0
37.04000, 0.0
37.08000, 0.0
37.12000, 0.0
37.16000, 0.0
37.20000, 0.0
37.24000, 0.0
37.28000, 1.0
37.32000, 0.0
37.36000, 0.0
37.40000, 0.0
37.44000, 0.0
37.48000, 0.0
37.52000, 0.0
37.56000, 0.0
37.60000, 0.0
37.64000, 0.0
37.68000, 0.0
37.72000, 0.0
37.76000, 0.0
37.80000, 0.0
37.84000, 0.0
37.88000, 0.0
37.92000, 0.0
37.96000, 0.0
38.00000, 0.0
38.04000, 0.0
38.08000, 0.0
38.12000, 0.0
38.16000, 0.0
38.20000, 0.0
38.24000, 0.0
38.28000, 0.0
38.32000, 0.0
38.36000, 0.0
38.40000, 0.0
38.44000, 0.0
38.48000, 0.0
38.52000, 0.0
38.56000, 0.0
38.60000, 0.0
38.64000, 0.0
38.68000, 0.0
38.72000, 0.0
38.76000, 0.0
38.80000, 0.0
38.84000, 0.0
38.88000, 0.0
38.92000, 0.0
38.96000, 0.0
39.00000, 0.0
39.04000, 0.0
39.08000, 0.0
39.12000, 0.0
39.16000, 0.0
39.20000, 0.0
39.24000, 0.0
39.28000, 0.0
39.32000, 0.0
39.36000, 0.0
39.40000, 0.0
39.44000, 0.0
39.48000, 0.0
39.52000, 0.0
39.56000, 0.0
39.60000, 0.0
39.64000, 0.0
39.68000, 0.0
39.72000, 0.0
39.76000, 0.0
39.80000, 0.0
39.84000, 0.0
39.88000, 0.0
39.92000, 0.0
39.96000, 0.0
40.00000, 0.0
40.04000, 0.0
40.08000, 0.0
40.12000, 0.0
40.16000, 0.0
40.20000, 1.0
40.24000, 0.0
40.28000, 0.0
40.32000, 0.0
40.36000, 0.0
40.40000, 0.0
40.44000, 0.0
40.48000, 0.0
40.52000, 0.0
40.54000, 0.0
#ENDOFDATA   :