File: spectrums WS2 30keV/B6_30keV_300924_A3_2.txt
#FORMAT      : EMSA/MAS Spectral Data File
#VERSION     : 1.0
#TITLE       : B6_10keV_300924_A3_2
#DATE        : 30-SEP-2024
#TIME        : 15:37
#OWNER       :
#NPOINTS     : 2048.0
#NCOLUMNS    : 1.0
#XUNITS      : keV
#YUNITS      : counts
#DATATYPE    : XY
#XPERCHAN    : 0.02
#OFFSET      : -0.4
#SIGNALTYPE  : EDS
#CHOFFSET    : 20.0
#LIVETIME    : 60.0257
#REALTIME    : 75.3844
#BEAMKV      : 30.0
#MAGCAM      : 4000.0
#XTILTSTGE   : 0.0
#AZIMANGLE   : 0.0
#ELEVANGLE   : 25.5
#XPOSITION mm: 2.0360
#YPOSITION mm: 0.3273
#ZPOSITION mm: 12.8672
##OXINSTPT   : 2
##OXINSTSTROB: 74.68
##OXINSTELEMS: 30,8,16
##OXINSTLABEL: 30, 8.639, Zn K?1
##OXINSTLABEL: 30, 9.572, Zn K?1
##OXINSTLABEL: 30, 1.012, Zn L?1,2
##OXINSTLABEL: 30, 0.906, Zn L?
##OXINSTLABEL: 30, 0.884, Zn Ll
##OXINSTLABEL: 8, 0.525, O K?1
##OXINSTLABEL: 16, 2.308, S K?1
##OXINSTLABEL: 16, 2.464, S K?1
#SPECTRUM    : Spectral Data Starts Here
-0.40000, 0.0
-0.36000, 0.0
-0.32000, 0.0
-0.28000, 0.0
-0.24000, 0.0
-0.20000, 0.0
-0.16000, 0.0
-0.12000, 0.0
-0.08000, 4.0
-0.04000, 202.0
0.00000, 1393.0
0.04000, 2817.0
0.08000, 1919.0
0.12000, 670.0
0.16000, 366.0
0.20000, 407.0
0.24000, 622.0
0.28000, 835.0
0.32000, 553.0
0.36000, 451.0
0.40000, 639.0
0.44000, 2331.0
0.48000, 9742.0
0.52000, 17401.0
0.56000, 10385.0
0.60000, 2281.0
0.64000, 578.0
0.68000, 545.0
0.72000, 628.0
0.76000, 708.0
0.80000, 859.0
0.84000, 1011.0
0.88000, 1088.0
0.92000, 1289.0
0.96000, 1457.0
1.00000, 1641.0
1.04000, 1736.0
1.08000, 1982.0
1.12000, 2099.0
1.16000, 2271.0
1.20000, 2426.0
1.24000, 2657.0
1.28000, 2888.0
1.32000, 3039.0
1.36000, 3375.0
1.40000, 3640.0
1.44000, 4146.0
1.48000, 4687.0
1.52000, 5326.0
1.56000, 5784.0
1.60000, 8557.0
1.64000, 41369.0
1.68000, 210375.0
1.72000, 506046.0
1.76000, 531958.0
1.80000, 255756.0
1.84000, 71357.0
1.88000, 18582.0
1.92000, 4449.0
1.96000, 1042.0
2.00000, 633.0
2.04000, 570.0
2.08000, 610.0
2.12000, 665.0
2.16000, 716.0
2.20000, 904.0
2.24000, 1185.0
2.28000, 1306.0
2.32000, 1010.0
2.36000, 817.0
2.40000, 800.0
2.44000, 784.0
2.48000, 813.0
2.52000, 824.0
2.56000, 869.0
2.60000, 859.0
2.64000, 930.0
2.68000, 964.0
2.72000, 934.0
2.76000, 954.0
2.80000, 969.0
2.84000, 969.0
2.88000, 996.0
2.92000, 1080.0
2.96000, 1089.0
3.00000, 1102.0
3.04000, 1109.0
3.08000, 1149.0
3.12000, 1144.0
3.16000, 1244.0
3.20000, 1225.0
3.24000, 1209.0
3.28000, 1294.0
3.32000, 1410.0
3.36000, 1909.0
3.40000, 4124.0
3.44000, 8894.0
3.48000, 12738.0
3.52000, 10742.0
3.56000, 5980.0
3.60000, 2945.0
3.64000, 1747.0
3.68000, 1314.0
3.72000, 1136.0
3.76000, 1194.0
3.80000, 1141.0
3.84000, 1133.0
3.88000, 1118.0
3.92000, 1127.0
3.96000, 1187.0
4.00000, 1185.0
4.04000, 1169.0
4.08000, 1182.0
4.12000, 1128.0
4.16000, 1155.0
4.20000, 1103.0
4.24000, 1186.0
4.28000, 1198.0
4.32000, 1146.0
4.36000, 1151.0
4.40000, 1150.0
4.44000, 1164.0
4.48000, 1206.0
4.52000, 1106.0
4.56000, 1116.0
4.60000, 1106.0
4.64000, 1161.0
4.68000, 1148.0
4.72000, 1157.0
4.76000, 1105.0
4.80000, 1162.0
4.84000, 1131.0
4.88000, 1118.0
4.92000, 1132.0
4.96000, 1120.0
5.00000, 1151.0
5.04000, 1106.0
5.08000, 1132.0
5.12000, 1143.0
5.16000, 1190.0
5.20000, 1329.0
5.24000, 1325.0
5.28000, 1225.0
5.32000, 1166.0
5.36000, 1131.0
5.40000, 1045.0
5.44000, 1049.0
5.48000, 1056.0
5.52000, 1050.0
5.56000, 1024.0
5.60000, 1006.0
5.64000, 1039.0
5.68000, 1047.0
5.72000, 1075.0
5.76000, 1066.0
5.80000, 1017.0
5.84000, 989.0
5.88000, 1000.0
5.92000, 1007.0
5.96000, 1010.0
6.00000, 1021.0
6.04000, 990.0
6.08000, 1005.0
6.12000, 967.0
6.16000, 916.0
6.20000, 962.0
6.24000, 911.0
6.28000, 935.0
6.32000, 916.0
6.36000, 907.0
6.40000, 924.0
6.44000, 916.0
6.48000, 885.0
6.52000, 904.0
6.56000, 869.0
6.60000, 874.0
6.64000, 883.0
6.68000, 849.0
6.72000, 885.0
6.76000, 856.0
6.80000, 887.0
6.84000, 864.0
6.88000, 859.0
6.92000, 868.0
6.96000, 898.0
7.00000, 854.0
7.04000, 829.0
7.08000, 834.0
7.12000, 841.0
7.16000, 854.0
7.20000, 832.0
7.24000, 788.0
7.28000, 795.0
7.32000, 831.0
7.36000, 786.0
7.40000, 766.0
7.44000, 795.0
7.48000, 765.0
7.52000, 774.0
7.56000, 793.0
7.60000, 718.0
7.64000, 771.0
7.68000, 736.0
7.72000, 747.0
7.76000, 732.0
7.80000, 733.0
7.84000, 758.0
7.88000, 736.0
7.92000, 698.0
7.96000, 705.0
8.00000, 698.0
8.04000, 690.0
8.08000, 698.0
8.12000, 667.0
8.16000, 695.0
8.20000, 683.0
8.24000, 683.0
8.28000, 709.0
8.32000, 694.0
8.36000, 722.0
8.40000, 682.0
8.44000, 662.0
8.48000, 628.0
8.52000, 657.0
8.56000, 621.0
8.60000, 659.0
8.64000, 633.0
8.68000, 625.0
8.72000, 647.0
8.76000, 602.0
8.80000, 613.0
8.84000, 597.0
8.88000, 632.0
8.92000, 583.0
8.96000, 567.0
9.00000, 612.0
9.04000, 613.0
9.08000, 580.0
9.12000, 608.0
9.16000, 568.0
9.20000, 565.0
9.24000, 584.0
9.28000, 528.0
9.32000, 558.0
9.36000, 578.0
9.40000, 562.0
9.44000, 521.0
9.48000, 560.0
9.52000, 566.0
9.56000, 539.0
9.60000, 527.0
9.64000, 554.0
9.68000, 543.0
9.72000, 540.0
9.76000, 493.0
9.80000, 531.0
9.84000, 525.0
9.88000, 513.0
9.92000, 507.0
9.96000, 516.0
10.00000, 503.0
10.04000, 476.0
10.08000, 521.0
10.12000, 511.0
10.16000, 508.0
10.20000, 485.0
10.24000, 479.0
10.28000, 476.0
10.32000, 488.0
10.36000, 454.0
10.40000, 484.0
10.44000, 453.0
10.48000, 460.0
10.52000, 458.0
10.56000, 475.0
10.60000, 443.0
10.64000, 440.0
10.68000, 463.0
10.72000, 459.0
10.76000, 426.0
10.80000, 443.0
10.84000, 426.0
10.88000, 419.0
10.92000, 424.0
10.96000, 433.0
11.00000, 405.0
11.04000, 430.0
11.08000, 407.0
11.12000, 401.0
11.16000, 405.0
11.20000, 438.0
11.24000, 401.0
11.28000, 380.0
11.32000, 386.0
11.36000, 391.0
11.40000, 406.0
11.44000, 402.0
11.48000, 409.0
11.52000, 399.0
11.56000, 373.0
11.60000, 363.0
11.64000, 385.0
11.68000, 367.0
11.72000, 388.0
11.76000, 329.0
11.80000, 348.0
11.84000, 381.0
11.88000, 352.0
11.92000, 340.0
11.96000, 368.0
12.00000, 358.0
12.04000, 344.0
12.08000, 314.0
12.12000, 332.0
12.16000, 325.0
12.20000, 311.0
12.24000, 324.0
12.28000, 305.0
12.32000, 327.0
12.36000, 318.0
12.40000, 329.0
12.44000, 309.0
12.48000, 298.0
12.52000, 322.0
12.56000, 290.0
12.60000, 285.0
12.64000, 299.0
12.68000, 273.0
12.72000, 280.0
12.76000, 281.0
12.80000, 285.0
12.84000, 286.0
12.88000, 304.0
12.92000, 291.0
12.96000, 281.0
13.00000, 260.0
13.04000, 278.0
13.08000, 276.0
13.12000, 246.0
13.16000, 272.0
13.20000, 263.0
13.24000, 259.0
13.28000, 257.0
13.32000, 271.0
13.36000, 240.0
13.40000, 283.0
13.44000, 268.0
13.48000, 241.0
13.52000, 241.0
13.56000, 252.0
13.60000, 215.0
13.64000, 221.0
13.68000, 222.0
13.72000, 255.0
13.76000, 244.0
13.80000, 246.0
13.84000, 257.0
13.88000, 229.0
13.92000, 234.0
13.96000, 237.0
14.00000, 218.0
14.04000, 232.0
14.08000, 228.0
14.12000, 237.0
14.16000, 213.0
14.20000, 205.0
14.24000, 197.0
14.28000, 222.0
14.32000, 204.0
14.36000, 190.0
14.40000, 191.0
14.44000, 200.0
14.48000, 189.0
14.52000, 200.0
14.56000, 184.0
14.60000, 193.0
14.64000, 190.0
14.68000, 197.0
14.72000, 192.0
14.76000, 195.0
14.80000, 185.0
14.84000, 169.0
14.88000, 183.0
14.92000, 177.0
14.96000, 170.0
15.00000, 165.0
15.04000, 171.0
15.08000, 172.0
15.12000, 163.0
15.16000, 168.0
15.20000, 166.0
15.24000, 176.0
15.28000, 174.0
15.32000, 185.0
15.36000, 151.0
15.40000, 150.0
15.44000, 159.0
15.48000, 164.0
15.52000, 162.0
15.56000, 146.0
15.60000, 149.0
15.64000, 150.0
15.68000, 136.0
15.72000, 154.0
15.76000, 140.0
15.80000, 139.0
15.84000, 139.0
15.88000, 126.0
15.92000, 138.0
15.96000, 127.0
16.00000, 117.0
16.04000, 109.0
16.08000, 137.0
16.12000, 132.0
16.16000, 136.0
16.20000, 121.0
16.24000, 123.0
16.28000, 120.0
16.32000, 138.0
16.36000, 127.0
16.40000, 112.0
16.44000, 114.0
16.48000, 117.0
16.52000, 115.0
16.56000, 114.0
16.60000, 125.0
16.64000, 124.0
16.68000, 113.0
16.72000, 107.0
16.76000, 117.0
16.80000, 112.0
16.84000, 97.0
16.88000, 114.0
16.92000, 111.0
16.96000, 108.0
17.00000, 97.0
17.04000, 104.0
17.08000, 110.0
17.12000, 100.0
17.16000, 99.0
17.20000, 107.0
17.24000, 108.0
17.28000, 96.0
17.32000, 87.0
17.36000, 113.0
17.40000, 91.0
17.44000, 94.0
17.48000, 94.0
17.52000, 93.0
17.56000, 91.0
17.60000, 94.0
17.64000, 85.0
17.68000, 82.0
17.72000, 91.0
17.76000, 81.0
17.80000, 93.0
17.84000, 76.0
17.88000, 89.0
17.92000, 83.0
17.96000, 81.0
18.00000, 66.0
18.04000, 81.0
18.08000, 73.0
18.12000, 74.0
18.16000, 80.0
18.20000, 81.0
18.24000, 80.0
18.28000, 68.0
18.32000, 69.0
18.36000, 74.0
18.40000, 73.0
18.44000, 75.0
18.48000, 75.0
18.52000, 62.0
18.56000, 71.0
18.60000, 64.0
18.64000, 56.0
18.68000, 51.0
18.72000, 59.0
18.76000, 71.0
18.80000, 71.0
18.84000, 70.0
18.88000, 58.0
18.92000, 60.0
18.96000, 64.0
19.00000, 57.0
19.04000, 63.0
19.08000, 63.0
19.12000, 55.0
19.16000, 47.0
19.20000, 49.0
19.24000, 66.0
19.28000, 57.0
19.32000, 53.0
19.36000, 46.0
19.40000, 46.0
19.44000, 55.0
19.48000, 52.0
19.52000, 53.0
19.56000, 44.0
19.60000, 58.0
19.64000, 56.0
19.68000, 46.0
19.72000, 53.0
19.76000, 56.0
19.80000, 41.0
19.84000, 46.0
19.88000, 50.0
19.92000, 50.0
19.96000, 50.0
20.00000, 51.0
20.04000, 47.0
20.08000, 45.0
20.12000, 44.0
20.16000, 49.0
20.20000, 45.0
20.24000, 43.0
20.28000, 38.0
20.32000, 44.0
20.36000, 41.0
20.40000, 41.0
20.44000, 40.0
20.48000, 45.0
20.52000, 34.0
20.56000, 42.0
20.60000, 48.0
20.64000, 39.0
20.68000, 47.0
20.72000, 32.0
20.76000, 42.0
20.80000, 32.0
20.84000, 30.0
20.88000, 30.0
20.92000, 33.0
20.96000, 32.0
21.00000, 41.0
21.04000, 27.0
21.08000, 33.0
21.12000, 34.0
21.16000, 33.0
21.20000, 33.0
21.24000, 27.0
21.28000, 29.0
21.32000, 40.0
21.36000, 27.0
21.40000, 34.0
21.44000, 26.0
21.48000, 31.0
21.52000, 29.0
21.56000, 33.0
21.60000, 28.0
21.64000, 28.0
21.68000, 24.0
21.72000, 32.0
21.76000, 24.0
21.80000, 28.0
21.84000, 29.0
21.88000, 22.0
21.92000, 36.0
21.96000, 25.0
22.00000, 26.0
22.04000, 27.0
22.08000, 18.0
22.12000, 25.0
22.16000, 25.0
22.20000, 17.0
22.24000, 23.0
22.28000, 28.0
22.32000, 20.0
22.36000, 31.0
22.40000, 17.0
22.44000, 18.0
22.48000, 24.0
22.52000, 26.0
22.56000, 23.0
22.60000, 24.0
22.64000, 22.0
22.68000, 19.0
22.72000, 19.0
22.76000, 23.0
22.80000, 24.0
22.84000, 24.0
22.88000, 15.0
22.92000, 24.0
22.96000, 20.0
23.00000, 24.0
23.04000, 15.0
23.08000, 17.0
23.12000, 20.0
23.16000, 13.0
23.20000, 17.0
23.24000, 22.0
23.28000, 23.0
23.32000, 20.0
23.36000, 20.0
23.40000, 22.0
23.44000, 19.0
23.48000, 14.0
23.52000, 11.0
23.56000, 13.0
23.60000, 15.0
23.64000, 20.0
23.68000, 23.0
23.72000, 13.0
23.76000, 14.0
23.80000, 15.0
23.84000, 18.0
23.88000, 10.0
23.92000, 22.0
23.96000, 11.0
24.00000, 7.0
24.04000, 11.0
24.08000, 12.0
24.12000, 18.0
24.16000, 13.0
24.20000, 10.0
24.24000, 11.0
24.28000, 10.0
24.32000, 12.0
24.36000, 19.0
24.40000, 11.0
24.44000, 9.0
24.48000, 11.0
24.52000, 10.0
24.56000, 9.0
24.60000, 13.0
24.64000, 14.0
24.68000, 9.0
24.72000, 10.0
24.76000, 12.0
24.80000, 9.0
24.84000, 12.0
24.88000, 13.0
24.92000, 12.0
24.96000, 10.0
25.00000, 9.0
25.04000, 9.0
25.08000, 12.0
25.12000, 13.0
25.16000, 10.0
25.20000, 12.0
25.24000, 8.0
25.28000, 6.0
25.32000, 8.0
25.36000, 12.0
25.40000, 6.0
25.44000, 9.0
25.48000, 7.0
25.52000, 7.0
25.56000, 4.0
25.60000, 10.0
25.64000, 8.0
25.68000, 9.0
25.72000, 7.0
25.76000, 9.0
25.80000, 6.0
25.84000, 6.0
25.88000, 6.0
25.92000, 6.0
25.96000, 5.0
26.00000, 8.0
26.04000, 7.0
26.08000, 9.0
26.12000, 8.0
26.16000, 6.0
26.20000, 4.0
26.24000, 4.0
26.28000, 6.0
26.32000, 6.0
26.36000, 4.0
26.40000, 6.0
26.44000, 5.0
26.48000, 3.0
26.52000, 6.0
26.56000, 6.0
26.60000, 2.0
26.64000, 6.0
26.68000, 5.0
26.72000, 3.0
26.76000, 5.0
26.80000, 7.0
26.84000, 5.0
26.88000, 8.0
26.92000, 7.0
26.96000, 5.0
27.00000, 3.0
27.04000, 5.0
27.08000, 3.0
27.12000, 6.0
27.16000, 3.0
27.20000, 6.0
27.24000, 4.0
27.28000, 4.0
27.32000, 6.0
27.36000, 4.0
27.40000, 3.0
27.44000, 3.0
27.48000, 5.0
27.52000, 3.0
27.56000, 5.0
27.60000, 4.0
27.64000, 1.0
27.68000, 3.0
27.72000, 2.0
27.76000, 5.0
27.80000, 1.0
27.84000, 6.0
27.88000, 2.0
27.92000, 2.0
27.96000, 3.0
28.00000, 4.0
28.04000, 5.0
28.08000, 0.0
28.12000, 3.0
28.16000, 2.0
28.20000, 0.0
28.24000, 2.0
28.28000, 1.0
28.32000, 3.0
28.36000, 1.0
28.40000, 0.0
28.44000, 2.0
28.48000, 3.0
28.52000, 3.0
28.56000, 1.0
28.60000, 1.0
28.64000, 1.0
28.68000, 1.0
28.72000, 1.0
28.76000, 2.0
28.80000, 0.0
28.84000, 2.0
28.88000, 1.0
28.92000, 2.0
28.96000, 2.0
29.00000, 3.0
29.04000, 2.0
29.08000, 2.0
29.12000, 3.0
29.16000, 0.0
29.20000, 1.0
29.24000, 0.0
29.28000, 1.0
29.32000, 1.0
29.36000, 1.0
29.40000, 1.0
29.44000, 0.0
29.48000, 2.0
29.52000, 0.0
29.56000, 1.0
29.60000, 3.0
29.64000, 0.0
29.68000, 2.0
29.72000, 1.0
29.76000, 0.0
29.80000, 0.0
29.84000, 1.0
29.88000, 0.0
29.92000, 0.0
29.96000, 0.0
30.00000, 0.0
30.04000, 1.0
30.08000, 1.0
30.12000, 1.0
30.16000, 0.0
30.20000, 1.0
30.24000, 1.0
30.28000, 0.0
30.32000, 0.0
30.36000, 0.0
30.40000, 0.0
30.44000, 0.0
30.48000, 0.0
30.52000, 1.0
30.56000, 0.0
30.60000, 0.0
30.64000, 0.0
30.68000, 1.0
30.72000, 0.0
30.76000, 1.0
30.80000, 0.0
30.84000, 1.0
30.88000, 0.0
30.92000, 0.0
30.96000, 0.0
31.00000, 0.0
31.04000, 1.0
31.08000, 0.0
31.12000, 0.0
31.16000, 0.0
31.20000, 0.0
31.24000, 0.0
31.28000, 0.0
31.32000, 1.0
31.36000, 0.0
31.40000, 0.0
31.44000, 0.0
31.48000, 0.0
31.52000, 0.0
31.56000, 0.0
31.60000, 0.0
31.64000, 0.0
31.68000, 0.0
31.72000, 0.0
31.76000, 0.0
31.80000, 0.0
31.84000, 1.0
31.88000, 0.0
31.92000, 0.0
31.96000, 0.0
32.00000, 0.0
32.04000, 0.0
32.08000, 0.0
32.12000, 0.0
32.16000, 0.0
32.20000, 0.0
32.24000, 0.0
32.28000, 0.0
32.32000, 0.0
32.36000, 0.0
32.40000, 0.0
32.44000, 0.0
32.48000, 0.0
32.52000, 0.0
32.56000, 0.0
32.60000, 1.0
32.64000, 0.0
32.68000, 0.0
32.72000, 0.0
32.76000, 0.0
32.80000, 0.0
32.84000, 0.0
32.88000, 1.0
32.92000, 0.0
32.96000, 0.0
33.00000, 0.0
33.04000, 0.0
33.08000, 0.0
33.12000, 0.0
33.16000, 0.0
33.20000, 0.0
33.24000, 0.0
33.28000, 0.0
33.32000, 0.0
33.36000, 0.0
33.40000, 0.0
33.44000, 0.0
33.48000, 0.0
33.52000, 0.0
33.56000, 0.0
33.60000, 1.0
33.64000, 0.0
33.68000, 1.0
33.72000, 0.0
33.76000, 0.0
33.80000, 0.0
33.84000, 0.0
33.88000, 0.0
33.92000, 0.0
33.96000, 0.0
34.00000, 0.0
34.04000, 0.0
34.08000, 0.0
34.12000, 0.0
34.16000, 0.0
34.20000, 0.0
34.24000, 0.0
34.28000, 0.0
34.32000, 0.0
34.36000, 0.0
34.40000, 0.0
34.44000, 0.0
34.48000, 0.0
34.52000, 1.0
34.56000, 0.0
34.60000, 0.0
34.64000, 0.0
34.68000, 0.0
34.72000, 0.0
34.76000, 0.0
34.80000, 0.0
34.84000, 0.0
34.88000, 0.0
34.92000, 0.0
34.96000, 1.0
35.00000, 0.0
35.04000, 0.0
35.08000, 0.0
35.12000, 0.0
35.16000, 0.0
35.20000, 0.0
35.24000, 0.0
35.28000, 0.0
35.32000, 1.0
35.36000, 0.0
35.40000, 0.0
35.44000, 0.0
35.48000, 0.0
35.52000, 1.0
35.56000, 0.0
35.60000, 0.0
35.64000, 0.0
35.68000, 0.0
35.72000, 0.0
35.76000, 0.0
35.80000, 0.0
35.84000, 0.0
35.88000, 0.0
35.92000, 0.0
35.96000, 0.0
36.00000, 0.0
36.04000, 0.0
36.08000, 0.0
36.12000, 0.0
36.16000, 0.0
36.20000, 0.0
36.24000, 0.0
36.28000, 0.0
36.32000, 0.0
36.36000, 0.0
36.40000, 0.0
36.44000, 0.0
36.48000, 0.0
36.52000, 0.0
36.56000, 0.0
36.60000, 0.0
36.64000, 0.0
36.68000, 0.0
36.72000, 0.0
36.76000, 0.0
36.80000, 0.0
36.84000, 0.0
36.88000, 0.0
36.92000, 0.0
36.96000, 0.0
37.00000, 0.0
37.04000, 0.0
37.08000, 1.0
37.12000, 0.0
37.16000, 0.0
37.20000, 0.0
37.24000, 0.0
37.28000, 0.0
37.32000, 0.0
37.36000, 0.0
37.40000, 0.0
37.44000, 0.0
37.48000, 0.0
37.52000, 0.0
37.56000, 0.0
37.60000, 0.0
37.64000, 0.0
37.68000, 0.0
37.72000, 0.0
37.76000, 0.0
37.80000, 0.0
37.84000, 0.0
37.88000, 0.0
37.92000, 1.0
37.96000, 0.0
38.00000, 0.0
38.04000, 0.0
38.08000, 0.0
38.12000, 0.0
38.16000, 0.0
38.20000, 0.0
38.24000, 0.0
38.28000, 0.0
38.32000, 0.0
38.36000, 0.0
38.40000, 0.0
38.44000, 0.0
38.48000, 0.0
38.52000, 1.0
38.56000, 0.0
38.60000, 0.0
38.64000, 0.0
38.68000, 0.0
38.72000, 0.0
38.76000, 0.0
38.80000, 0.0
38.84000, 0.0
38.88000, 0.0
38.92000, 0.0
38.96000, 0.0
39.00000, 0.0
39.04000, 0.0
39.08000, 0.0
39.12000, 0.0
39.16000, 0.0
39.20000, 0.0
39.24000, 0.0
39.28000, 0.0
39.32000, 0.0
39.36000, 0.0
39.40000, 0.0
39.44000, 0.0
39.48000, 0.0
39.52000, 0.0
39.56000, 0.0
39.60000, 0.0
39.64000, 0.0
39.68000, 0.0
39.72000, 0.0
39.76000, 0.0
39.80000, 0.0
39.84000, 0.0
39.88000, 0.0
39.92000, 0.0
39.96000, 0.0
40.00000, 0.0
40.04000, 0.0
40.08000, 0.0
40.12000, 0.0
40.16000, 0.0
40.20000, 0.0
40.24000, 0.0
40.28000, 0.0
40.32000, 0.0
40.36000, 0.0
40.40000, 0.0
40.44000, 0.0
40.48000, 0.0
40.52000, 0.0
40.54000, 0.0
#ENDOFDATA   :