File: spectrums WS2 30keV/B6_30keV_300924_A3_1.txt
#FORMAT      : EMSA/MAS Spectral Data File
#VERSION     : 1.0
#TITLE       : B6_10keV_300924_A3_1
#DATE        : 30-SEP-2024
#TIME        : 15:35
#OWNER       :
#NPOINTS     : 2048.0
#NCOLUMNS    : 1.0
#XUNITS      : keV
#YUNITS      : counts
#DATATYPE    : XY
#XPERCHAN    : 0.02
#OFFSET      : -0.4
#SIGNALTYPE  : EDS
#CHOFFSET    : 20.0
#LIVETIME    : 60.0405
#REALTIME    : 75.4215
#BEAMKV      : 30.0
#MAGCAM      : 4000.0
#XTILTSTGE   : 0.0
#AZIMANGLE   : 0.0
#ELEVANGLE   : 25.5
#XPOSITION mm: 2.0360
#YPOSITION mm: 0.3273
#ZPOSITION mm: 12.8672
##OXINSTPT   : 2
##OXINSTSTROB: 74.73
##OXINSTELEMS: 30,8,16
##OXINSTLABEL: 30, 8.639, Zn K?1
##OXINSTLABEL: 30, 9.572, Zn K?1
##OXINSTLABEL: 30, 1.012, Zn L?1,2
##OXINSTLABEL: 30, 0.906, Zn L?
##OXINSTLABEL: 30, 0.884, Zn Ll
##OXINSTLABEL: 8, 0.525, O K?1
##OXINSTLABEL: 16, 2.308, S K?1
##OXINSTLABEL: 16, 2.464, S K?1
#SPECTRUM    : Spectral Data Starts Here
-0.40000, 0.0
-0.36000, 0.0
-0.32000, 0.0
-0.28000, 0.0
-0.24000, 0.0
-0.20000, 0.0
-0.16000, 0.0
-0.12000, 0.0
-0.08000, 6.0
-0.04000, 225.0
0.00000, 1362.0
0.04000, 2778.0
0.08000, 2025.0
0.12000, 716.0
0.16000, 372.0
0.20000, 440.0
0.24000, 605.0
0.28000, 856.0
0.32000, 526.0
0.36000, 442.0
0.40000, 625.0
0.44000, 2246.0
0.48000, 9755.0
0.52000, 17423.0
0.56000, 10310.0
0.60000, 2357.0
0.64000, 610.0
0.68000, 540.0
0.72000, 647.0
0.76000, 711.0
0.80000, 869.0
0.84000, 947.0
0.88000, 1078.0
0.92000, 1285.0
0.96000, 1430.0
1.00000, 1647.0
1.04000, 1789.0
1.08000, 1965.0
1.12000, 2112.0
1.16000, 2255.0
1.20000, 2484.0
1.24000, 2575.0
1.28000, 2793.0
1.32000, 2993.0
1.36000, 3282.0
1.40000, 3636.0
1.44000, 4142.0
1.48000, 4677.0
1.52000, 5356.0
1.56000, 5906.0
1.60000, 8605.0
1.64000, 41194.0
1.68000, 210302.0
1.72000, 506155.0
1.76000, 532699.0
1.80000, 255888.0
1.84000, 71655.0
1.88000, 18889.0
1.92000, 4526.0
1.96000, 1069.0
2.00000, 626.0
2.04000, 629.0
2.08000, 588.0
2.12000, 621.0
2.16000, 680.0
2.20000, 884.0
2.24000, 1169.0
2.28000, 1257.0
2.32000, 1096.0
2.36000, 851.0
2.40000, 782.0
2.44000, 767.0
2.48000, 793.0
2.52000, 854.0
2.56000, 815.0
2.60000, 870.0
2.64000, 878.0
2.68000, 890.0
2.72000, 953.0
2.76000, 969.0
2.80000, 1011.0
2.84000, 997.0
2.88000, 1005.0
2.92000, 1054.0
2.96000, 1070.0
3.00000, 1104.0
3.04000, 1131.0
3.08000, 1150.0
3.12000, 1173.0
3.16000, 1178.0
3.20000, 1304.0
3.24000, 1227.0
3.28000, 1341.0
3.32000, 1452.0
3.36000, 1881.0
3.40000, 4215.0
3.44000, 9095.0
3.48000, 12633.0
3.52000, 10887.0
3.56000, 6022.0
3.60000, 3003.0
3.64000, 1809.0
3.68000, 1306.0
3.72000, 1213.0
3.76000, 1161.0
3.80000, 1107.0
3.84000, 1168.0
3.88000, 1115.0
3.92000, 1129.0
3.96000, 1115.0
4.00000, 1141.0
4.04000, 1170.0
4.08000, 1193.0
4.12000, 1157.0
4.16000, 1156.0
4.20000, 1172.0
4.24000, 1178.0
4.28000, 1130.0
4.32000, 1117.0
4.36000, 1158.0
4.40000, 1200.0
4.44000, 1147.0
4.48000, 1140.0
4.52000, 1139.0
4.56000, 1145.0
4.60000, 1100.0
4.64000, 1118.0
4.68000, 1167.0
4.72000, 1173.0
4.76000, 1154.0
4.80000, 1156.0
4.84000, 1107.0
4.88000, 1157.0
4.92000, 1184.0
4.96000, 1151.0
5.00000, 1106.0
5.04000, 1123.0
5.08000, 1132.0
5.12000, 1193.0
5.16000, 1276.0
5.20000, 1275.0
5.24000, 1328.0
5.28000, 1259.0
5.32000, 1187.0
5.36000, 1096.0
5.40000, 1094.0
5.44000, 1060.0
5.48000, 1035.0
5.52000, 1030.0
5.56000, 1044.0
5.60000, 1011.0
5.64000, 1031.0
5.68000, 986.0
5.72000, 954.0
5.76000, 1040.0
5.80000, 1014.0
5.84000, 969.0
5.88000, 1020.0
5.92000, 996.0
5.96000, 971.0
6.00000, 987.0
6.04000, 984.0
6.08000, 962.0
6.12000, 966.0
6.16000, 919.0
6.20000, 968.0
6.24000, 991.0
6.28000, 980.0
6.32000, 957.0
6.36000, 896.0
6.40000, 911.0
6.44000, 907.0
6.48000, 928.0
6.52000, 910.0
6.56000, 864.0
6.60000, 923.0
6.64000, 898.0
6.68000, 901.0
6.72000, 875.0
6.76000, 897.0
6.80000, 897.0
6.84000, 856.0
6.88000, 832.0
6.92000, 858.0
6.96000, 829.0
7.00000, 846.0
7.04000, 836.0
7.08000, 805.0
7.12000, 834.0
7.16000, 794.0
7.20000, 818.0
7.24000, 807.0
7.28000, 811.0
7.32000, 804.0
7.36000, 780.0
7.40000, 806.0
7.44000, 807.0
7.48000, 782.0
7.52000, 753.0
7.56000, 777.0
7.60000, 785.0
7.64000, 741.0
7.68000, 738.0
7.72000, 744.0
7.76000, 717.0
7.80000, 745.0
7.84000, 724.0
7.88000, 711.0
7.92000, 696.0
7.96000, 713.0
8.00000, 691.0
8.04000, 704.0
8.08000, 699.0
8.12000, 685.0
8.16000, 712.0
8.20000, 659.0
8.24000, 673.0
8.28000, 691.0
8.32000, 683.0
8.36000, 663.0
8.40000, 699.0
8.44000, 649.0
8.48000, 712.0
8.52000, 633.0
8.56000, 684.0
8.60000, 684.0
8.64000, 664.0
8.68000, 621.0
8.72000, 653.0
8.76000, 632.0
8.80000, 610.0
8.84000, 614.0
8.88000, 608.0
8.92000, 597.0
8.96000, 592.0
9.00000, 645.0
9.04000, 586.0
9.08000, 609.0
9.12000, 592.0
9.16000, 579.0
9.20000, 578.0
9.24000, 590.0
9.28000, 570.0
9.32000, 573.0
9.36000, 582.0
9.40000, 566.0
9.44000, 577.0
9.48000, 548.0
9.52000, 538.0
9.56000, 580.0
9.60000, 555.0
9.64000, 541.0
9.68000, 524.0
9.72000, 547.0
9.76000, 569.0
9.80000, 528.0
9.84000, 502.0
9.88000, 526.0
9.92000, 498.0
9.96000, 494.0
10.00000, 526.0
10.04000, 476.0
10.08000, 495.0
10.12000, 498.0
10.16000, 502.0
10.20000, 493.0
10.24000, 467.0
10.28000, 485.0
10.32000, 482.0
10.36000, 467.0
10.40000, 461.0
10.44000, 466.0
10.48000, 465.0
10.52000, 469.0
10.56000, 465.0
10.60000, 424.0
10.64000, 461.0
10.68000, 438.0
10.72000, 436.0
10.76000, 407.0
10.80000, 432.0
10.84000, 434.0
10.88000, 453.0
10.92000, 436.0
10.96000, 414.0
11.00000, 414.0
11.04000, 416.0
11.08000, 406.0
11.12000, 423.0
11.16000, 438.0
11.20000, 420.0
11.24000, 386.0
11.28000, 408.0
11.32000, 382.0
11.36000, 383.0
11.40000, 383.0
11.44000, 367.0
11.48000, 365.0
11.52000, 371.0
11.56000, 375.0
11.60000, 375.0
11.64000, 358.0
11.68000, 378.0
11.72000, 343.0
11.76000, 358.0
11.80000, 379.0
11.84000, 362.0
11.88000, 361.0
11.92000, 346.0
11.96000, 373.0
12.00000, 333.0
12.04000, 337.0
12.08000, 322.0
12.12000, 335.0
12.16000, 334.0
12.20000, 328.0
12.24000, 322.0
12.28000, 331.0
12.32000, 345.0
12.36000, 314.0
12.40000, 320.0
12.44000, 298.0
12.48000, 292.0
12.52000, 310.0
12.56000, 286.0
12.60000, 302.0
12.64000, 311.0
12.68000, 312.0
12.72000, 299.0
12.76000, 281.0
12.80000, 284.0
12.84000, 274.0
12.88000, 278.0
12.92000, 289.0
12.96000, 282.0
13.00000, 288.0
13.04000, 272.0
13.08000, 266.0
13.12000, 255.0
13.16000, 276.0
13.20000, 253.0
13.24000, 272.0
13.28000, 271.0
13.32000, 248.0
13.36000, 246.0
13.40000, 256.0
13.44000, 263.0
13.48000, 258.0
13.52000, 246.0
13.56000, 237.0
13.60000, 235.0
13.64000, 233.0
13.68000, 231.0
13.72000, 226.0
13.76000, 245.0
13.80000, 232.0
13.84000, 236.0
13.88000, 219.0
13.92000, 217.0
13.96000, 232.0
14.00000, 210.0
14.04000, 212.0
14.08000, 227.0
14.12000, 215.0
14.16000, 206.0
14.20000, 211.0
14.24000, 226.0
14.28000, 200.0
14.32000, 181.0
14.36000, 201.0
14.40000, 189.0
14.44000, 198.0
14.48000, 212.0
14.52000, 184.0
14.56000, 199.0
14.60000, 195.0
14.64000, 185.0
14.68000, 194.0
14.72000, 187.0
14.76000, 188.0
14.80000, 190.0
14.84000, 173.0
14.88000, 180.0
14.92000, 168.0
14.96000, 177.0
15.00000, 160.0
15.04000, 174.0
15.08000, 171.0
15.12000, 166.0
15.16000, 170.0
15.20000, 157.0
15.24000, 155.0
15.28000, 160.0
15.32000, 162.0
15.36000, 156.0
15.40000, 155.0
15.44000, 152.0
15.48000, 152.0
15.52000, 169.0
15.56000, 152.0
15.60000, 147.0
15.64000, 142.0
15.68000, 151.0
15.72000, 151.0
15.76000, 137.0
15.80000, 145.0
15.84000, 132.0
15.88000, 143.0
15.92000, 137.0
15.96000, 134.0
16.00000, 144.0
16.04000, 146.0
16.08000, 126.0
16.12000, 122.0
16.16000, 128.0
16.20000, 119.0
16.24000, 127.0
16.28000, 129.0
16.32000, 120.0
16.36000, 127.0
16.40000, 124.0
16.44000, 114.0
16.48000, 126.0
16.52000, 122.0
16.56000, 115.0
16.60000, 108.0
16.64000, 109.0
16.68000, 118.0
16.72000, 109.0
16.76000, 114.0
16.80000, 113.0
16.84000, 101.0
16.88000, 128.0
16.92000, 104.0
16.96000, 108.0
17.00000, 105.0
17.04000, 93.0
17.08000, 105.0
17.12000, 110.0
17.16000, 87.0
17.20000, 109.0
17.24000, 109.0
17.28000, 105.0
17.32000, 100.0
17.36000, 95.0
17.40000, 91.0
17.44000, 91.0
17.48000, 92.0
17.52000, 96.0
17.56000, 89.0
17.60000, 90.0
17.64000, 91.0
17.68000, 85.0
17.72000, 88.0
17.76000, 77.0
17.80000, 87.0
17.84000, 89.0
17.88000, 88.0
17.92000, 84.0
17.96000, 77.0
18.00000, 92.0
18.04000, 88.0
18.08000, 75.0
18.12000, 86.0
18.16000, 77.0
18.20000, 80.0
18.24000, 73.0
18.28000, 76.0
18.32000, 84.0
18.36000, 72.0
18.40000, 71.0
18.44000, 71.0
18.48000, 74.0
18.52000, 66.0
18.56000, 62.0
18.60000, 68.0
18.64000, 70.0
18.68000, 67.0
18.72000, 66.0
18.76000, 72.0
18.80000, 63.0
18.84000, 64.0
18.88000, 55.0
18.92000, 66.0
18.96000, 65.0
19.00000, 61.0
19.04000, 48.0
19.08000, 63.0
19.12000, 55.0
19.16000, 46.0
19.20000, 56.0
19.24000, 50.0
19.28000, 62.0
19.32000, 60.0
19.36000, 56.0
19.40000, 58.0
19.44000, 51.0
19.48000, 51.0
19.52000, 52.0
19.56000, 56.0
19.60000, 53.0
19.64000, 44.0
19.68000, 45.0
19.72000, 50.0
19.76000, 55.0
19.80000, 53.0
19.84000, 47.0
19.88000, 45.0
19.92000, 41.0
19.96000, 43.0
20.00000, 55.0
20.04000, 43.0
20.08000, 44.0
20.12000, 52.0
20.16000, 41.0
20.20000, 47.0
20.24000, 49.0
20.28000, 37.0
20.32000, 45.0
20.36000, 44.0
20.40000, 32.0
20.44000, 50.0
20.48000, 44.0
20.52000, 42.0
20.56000, 37.0
20.60000, 43.0
20.64000, 42.0
20.68000, 35.0
20.72000, 41.0
20.76000, 41.0
20.80000, 36.0
20.84000, 34.0
20.88000, 38.0
20.92000, 37.0
20.96000, 43.0
21.00000, 33.0
21.04000, 28.0
21.08000, 33.0
21.12000, 37.0
21.16000, 38.0
21.20000, 24.0
21.24000, 33.0
21.28000, 37.0
21.32000, 30.0
21.36000, 35.0
21.40000, 39.0
21.44000, 26.0
21.48000, 33.0
21.52000, 26.0
21.56000, 26.0
21.60000, 27.0
21.64000, 30.0
21.68000, 28.0
21.72000, 22.0
21.76000, 34.0
21.80000, 20.0
21.84000, 25.0
21.88000, 28.0
21.92000, 19.0
21.96000, 24.0
22.00000, 26.0
22.04000, 25.0
22.08000, 28.0
22.12000, 29.0
22.16000, 32.0
22.20000, 30.0
22.24000, 20.0
22.28000, 19.0
22.32000, 21.0
22.36000, 17.0
22.40000, 25.0
22.44000, 17.0
22.48000, 24.0
22.52000, 23.0
22.56000, 20.0
22.60000, 23.0
22.64000, 22.0
22.68000, 24.0
22.72000, 16.0
22.76000, 18.0
22.80000, 24.0
22.84000, 19.0
22.88000, 24.0
22.92000, 19.0
22.96000, 21.0
23.00000, 19.0
23.04000, 20.0
23.08000, 17.0
23.12000, 20.0
23.16000, 21.0
23.20000, 21.0
23.24000, 19.0
23.28000, 19.0
23.32000, 15.0
23.36000, 14.0
23.40000, 19.0
23.44000, 16.0
23.48000, 13.0
23.52000, 19.0
23.56000, 19.0
23.60000, 13.0
23.64000, 17.0
23.68000, 10.0
23.72000, 13.0
23.76000, 18.0
23.80000, 10.0
23.84000, 15.0
23.88000, 15.0
23.92000, 16.0
23.96000, 16.0
24.00000, 14.0
24.04000, 15.0
24.08000, 8.0
24.12000, 12.0
24.16000, 18.0
24.20000, 16.0
24.24000, 11.0
24.28000, 13.0
24.32000, 10.0
24.36000, 11.0
24.40000, 12.0
24.44000, 17.0
24.48000, 11.0
24.52000, 13.0
24.56000, 6.0
24.60000, 12.0
24.64000, 13.0
24.68000, 9.0
24.72000, 6.0
24.76000, 8.0
24.80000, 12.0
24.84000, 14.0
24.88000, 9.0
24.92000, 11.0
24.96000, 11.0
25.00000, 10.0
25.04000, 10.0
25.08000, 15.0
25.12000, 9.0
25.16000, 11.0
25.20000, 8.0
25.24000, 11.0
25.28000, 6.0
25.32000, 8.0
25.36000, 7.0
25.40000, 3.0
25.44000, 8.0
25.48000, 10.0
25.52000, 5.0
25.56000, 6.0
25.60000, 9.0
25.64000, 9.0
25.68000, 4.0
25.72000, 3.0
25.76000, 7.0
25.80000, 6.0
25.84000, 4.0
25.88000, 5.0
25.92000, 10.0
25.96000, 6.0
26.00000, 7.0
26.04000, 9.0
26.08000, 7.0
26.12000, 6.0
26.16000, 5.0
26.20000, 11.0
26.24000, 5.0
26.28000, 4.0
26.32000, 8.0
26.36000, 6.0
26.40000, 1.0
26.44000, 5.0
26.48000, 2.0
26.52000, 3.0
26.56000, 7.0
26.60000, 4.0
26.64000, 5.0
26.68000, 3.0
26.72000, 5.0
26.76000, 8.0
26.80000, 9.0
26.84000, 4.0
26.88000, 3.0
26.92000, 3.0
26.96000, 3.0
27.00000, 4.0
27.04000, 1.0
27.08000, 1.0
27.12000, 2.0
27.16000, 4.0
27.20000, 5.0
27.24000, 4.0
27.28000, 4.0
27.32000, 3.0
27.36000, 4.0
27.40000, 2.0
27.44000, 4.0
27.48000, 3.0
27.52000, 1.0
27.56000, 3.0
27.60000, 5.0
27.64000, 4.0
27.68000, 3.0
27.72000, 3.0
27.76000, 2.0
27.80000, 1.0
27.84000, 2.0
27.88000, 1.0
27.92000, 2.0
27.96000, 3.0
28.00000, 1.0
28.04000, 2.0
28.08000, 3.0
28.12000, 2.0
28.16000, 0.0
28.20000, 0.0
28.24000, 0.0
28.28000, 2.0
28.32000, 2.0
28.36000, 1.0
28.40000, 0.0
28.44000, 2.0
28.48000, 2.0
28.52000, 2.0
28.56000, 2.0
28.60000, 1.0
28.64000, 1.0
28.68000, 1.0
28.72000, 1.0
28.76000, 3.0
28.80000, 1.0
28.84000, 2.0
28.88000, 1.0
28.92000, 0.0
28.96000, 2.0
29.00000, 0.0
29.04000, 2.0
29.08000, 1.0
29.12000, 0.0
29.16000, 0.0
29.20000, 1.0
29.24000, 2.0
29.28000, 0.0
29.32000, 0.0
29.36000, 0.0
29.40000, 1.0
29.44000, 2.0
29.48000, 1.0
29.52000, 0.0
29.56000, 1.0
29.60000, 1.0
29.64000, 0.0
29.68000, 0.0
29.72000, 0.0
29.76000, 0.0
29.80000, 0.0
29.84000, 2.0
29.88000, 1.0
29.92000, 0.0
29.96000, 1.0
30.00000, 0.0
30.04000, 1.0
30.08000, 1.0
30.12000, 0.0
30.16000, 3.0
30.20000, 2.0
30.24000, 0.0
30.28000, 0.0
30.32000, 0.0
30.36000, 0.0
30.40000, 1.0
30.44000, 1.0
30.48000, 0.0
30.52000, 0.0
30.56000, 0.0
30.60000, 0.0
30.64000, 0.0
30.68000, 0.0
30.72000, 0.0
30.76000, 1.0
30.80000, 0.0
30.84000, 1.0
30.88000, 0.0
30.92000, 0.0
30.96000, 2.0
31.00000, 0.0
31.04000, 1.0
31.08000, 0.0
31.12000, 0.0
31.16000, 0.0
31.20000, 0.0
31.24000, 0.0
31.28000, 1.0
31.32000, 0.0
31.36000, 0.0
31.40000, 0.0
31.44000, 0.0
31.48000, 0.0
31.52000, 0.0
31.56000, 0.0
31.60000, 0.0
31.64000, 0.0
31.68000, 0.0
31.72000, 0.0
31.76000, 0.0
31.80000, 0.0
31.84000, 0.0
31.88000, 0.0
31.92000, 0.0
31.96000, 0.0
32.00000, 0.0
32.04000, 0.0
32.08000, 0.0
32.12000, 0.0
32.16000, 1.0
32.20000, 0.0
32.24000, 0.0
32.28000, 0.0
32.32000, 1.0
32.36000, 0.0
32.40000, 0.0
32.44000, 0.0
32.48000, 0.0
32.52000, 0.0
32.56000, 0.0
32.60000, 0.0
32.64000, 0.0
32.68000, 0.0
32.72000, 0.0
32.76000, 1.0
32.80000, 0.0
32.84000, 0.0
32.88000, 1.0
32.92000, 0.0
32.96000, 0.0
33.00000, 0.0
33.04000, 0.0
33.08000, 0.0
33.12000, 0.0
33.16000, 0.0
33.20000, 0.0
33.24000, 1.0
33.28000, 0.0
33.32000, 0.0
33.36000, 0.0
33.40000, 0.0
33.44000, 0.0
33.48000, 0.0
33.52000, 0.0
33.56000, 0.0
33.60000, 0.0
33.64000, 0.0
33.68000, 0.0
33.72000, 0.0
33.76000, 1.0
33.80000, 0.0
33.84000, 0.0
33.88000, 0.0
33.92000, 0.0
33.96000, 0.0
34.00000, 0.0
34.04000, 0.0
34.08000, 0.0
34.12000, 0.0
34.16000, 0.0
34.20000, 0.0
34.24000, 0.0
34.28000, 0.0
34.32000, 0.0
34.36000, 0.0
34.40000, 0.0
34.44000, 0.0
34.48000, 0.0
34.52000, 0.0
34.56000, 0.0
34.60000, 0.0
34.64000, 0.0
34.68000, 0.0
34.72000, 0.0
34.76000, 0.0
34.80000, 0.0
34.84000, 0.0
34.88000, 0.0
34.92000, 0.0
34.96000, 0.0
35.00000, 0.0
35.04000, 0.0
35.08000, 0.0
35.12000, 0.0
35.16000, 1.0
35.20000, 0.0
35.24000, 0.0
35.28000, 0.0
35.32000, 0.0
35.36000, 0.0
35.40000, 0.0
35.44000, 1.0
35.48000, 0.0
35.52000, 0.0
35.56000, 0.0
35.60000, 0.0
35.64000, 0.0
35.68000, 0.0
35.72000, 0.0
35.76000, 0.0
35.80000, 2.0
35.84000, 1.0
35.88000, 0.0
35.92000, 0.0
35.96000, 0.0
36.00000, 0.0
36.04000, 0.0
36.08000, 0.0
36.12000, 0.0
36.16000, 0.0
36.20000, 0.0
36.24000, 0.0
36.28000, 0.0
36.32000, 0.0
36.36000, 0.0
36.40000, 0.0
36.44000, 0.0
36.48000, 1.0
36.52000, 0.0
36.56000, 0.0
36.60000, 0.0
36.64000, 0.0
36.68000, 0.0
36.72000, 0.0
36.76000, 0.0
36.80000, 0.0
36.84000, 0.0
36.88000, 0.0
36.92000, 0.0
36.96000, 0.0
37.00000, 0.0
37.04000, 0.0
37.08000, 0.0
37.12000, 0.0
37.16000, 0.0
37.20000, 0.0
37.24000, 0.0
37.28000, 0.0
37.32000, 0.0
37.36000, 0.0
37.40000, 0.0
37.44000, 0.0
37.48000, 0.0
37.52000, 0.0
37.56000, 0.0
37.60000, 0.0
37.64000, 0.0
37.68000, 0.0
37.72000, 0.0
37.76000, 0.0
37.80000, 0.0
37.84000, 1.0
37.88000, 0.0
37.92000, 0.0
37.96000, 0.0
38.00000, 0.0
38.04000, 0.0
38.08000, 0.0
38.12000, 0.0
38.16000, 0.0
38.20000, 0.0
38.24000, 0.0
38.28000, 0.0
38.32000, 0.0
38.36000, 0.0
38.40000, 0.0
38.44000, 0.0
38.48000, 0.0
38.52000, 0.0
38.56000, 0.0
38.60000, 0.0
38.64000, 0.0
38.68000, 0.0
38.72000, 0.0
38.76000, 0.0
38.80000, 0.0
38.84000, 0.0
38.88000, 0.0
38.92000, 0.0
38.96000, 0.0
39.00000, 0.0
39.04000, 0.0
39.08000, 0.0
39.12000, 0.0
39.16000, 0.0
39.20000, 0.0
39.24000, 0.0
39.28000, 0.0
39.32000, 0.0
39.36000, 0.0
39.40000, 0.0
39.44000, 0.0
39.48000, 0.0
39.52000, 0.0
39.56000, 0.0
39.60000, 0.0
39.64000, 0.0
39.68000, 0.0
39.72000, 0.0
39.76000, 0.0
39.80000, 0.0
39.84000, 0.0
39.88000, 0.0
39.92000, 0.0
39.96000, 0.0
40.00000, 0.0
40.04000, 0.0
40.08000, 0.0
40.12000, 0.0
40.16000, 0.0
40.20000, 0.0
40.24000, 0.0
40.28000, 0.0
40.32000, 0.0
40.36000, 0.0
40.40000, 0.0
40.44000, 0.0
40.48000, 0.0
40.52000, 0.0
40.54000, 0.0
#ENDOFDATA   :