File: Spectras 300724/A10_10k_310724_2.txt
#FORMAT      : EMSA/MAS Spectral Data File
#VERSION     : 1.0
#TITLE       : A10_10k_310724_2
#DATE        : 30-JUL-2024
#TIME        : 10:11
#OWNER       :
#NPOINTS     : 2048.0
#NCOLUMNS    : 1.0
#XUNITS      : keV
#YUNITS      : counts
#DATATYPE    : XY
#XPERCHAN    : 0.005
#OFFSET      : -0.1
#SIGNALTYPE  : EDS
#CHOFFSET    : 20.0
#LIVETIME    : 60.0298
#REALTIME    : 60.7725
#BEAMKV      : 10.0
#MAGCAM      : 4500.0
#XTILTSTGE   : 0.0
#AZIMANGLE   : 0.0
#ELEVANGLE   : 25.5
#XPOSITION mm: -0.4115
#YPOSITION mm: -1.5498
#ZPOSITION mm: 13.8532
##OXINSTPT   : 2
##OXINSTSTROB: 69.68
##OXINSTELEMS: 6,8,29,79,78,14
##OXINSTLABEL: 6, 0.277, C K?1_2
##OXINSTLABEL: 8, 0.525, O K?1
##OXINSTLABEL: 29, 8.048, Cu K?1
##OXINSTLABEL: 29, 8.905, Cu K?1
##OXINSTLABEL: 29, 0.930, Cu L?1,2
##OXINSTLABEL: 29, 0.832, Cu L?
##OXINSTLABEL: 29, 0.811, Cu Ll
##OXINSTLABEL: 79, 9.713, Au L?1
##OXINSTLABEL: 79, 8.494, Au Ll
##OXINSTLABEL: 79, 2.123, Au M?1
##OXINSTLABEL: 79, 2.410, Au M?
##OXINSTLABEL: 79, 1.648, Au M?2
##OXINSTLABEL: 79, 0.265, Au N4-N6
##OXINSTLABEL: 79, 0.251, Au N5-N6,7
##OXINSTLABEL: 78, 9.442, Pt L?1
##OXINSTLABEL: 78, 9.975, Pt L?
##OXINSTLABEL: 78, 8.268, Pt Ll
##OXINSTLABEL: 78, 2.050, Pt M?1
##OXINSTLABEL: 78, 2.331, Pt M?
##OXINSTLABEL: 78, 1.592, Pt M?2
##OXINSTLABEL: 78, 0.258, Pt N4-N6
##OXINSTLABEL: 78, 0.244, Pt N5-N6,7
##OXINSTLABEL: 14, 1.740, Si K?1
#SPECTRUM    : Spectral Data Starts Here
-0.10000, 0.0
-0.09000, 0.0
-0.08000, 1.0
-0.07000, 3.0
-0.06000, 5.0
-0.05000, 17.0
-0.04000, 46.0
-0.03000, 90.0
-0.02000, 220.0
-0.01000, 369.0
0.00000, 560.0
0.01000, 787.0
0.02000, 966.0
0.03000, 1231.0
0.04000, 1334.0
0.05000, 1300.0
0.06000, 1159.0
0.07000, 985.0
0.08000, 739.0
0.09000, 551.0
0.10000, 375.0
0.11000, 225.0
0.12000, 172.0
0.13000, 195.0
0.14000, 188.0
0.15000, 184.0
0.16000, 178.0
0.17000, 171.0
0.18000, 149.0
0.19000, 127.0
0.20000, 96.0
0.21000, 87.0
0.22000, 70.0
0.23000, 45.0
0.24000, 36.0
0.25000, 42.0
0.26000, 41.0
0.27000, 42.0
0.28000, 30.0
0.29000, 36.0
0.30000, 33.0
0.31000, 25.0
0.32000, 11.0
0.33000, 17.0
0.34000, 17.0
0.35000, 10.0
0.36000, 18.0
0.37000, 10.0
0.38000, 11.0
0.39000, 10.0
0.40000, 13.0
0.41000, 18.0
0.42000, 19.0
0.43000, 19.0
0.44000, 23.0
0.45000, 26.0
0.46000, 23.0
0.47000, 22.0
0.48000, 31.0
0.49000, 30.0
0.50000, 30.0
0.51000, 34.0
0.52000, 51.0
0.53000, 55.0
0.54000, 53.0
0.55000, 56.0
0.56000, 61.0
0.57000, 52.0
0.58000, 68.0
0.59000, 53.0
0.60000, 57.0
0.61000, 40.0
0.62000, 45.0
0.63000, 40.0
0.64000, 44.0
0.65000, 40.0
0.66000, 41.0
0.67000, 45.0
0.68000, 47.0
0.69000, 45.0
0.70000, 38.0
0.71000, 47.0
0.72000, 44.0
0.73000, 39.0
0.74000, 50.0
0.75000, 58.0
0.76000, 46.0
0.77000, 48.0
0.78000, 52.0
0.79000, 48.0
0.80000, 45.0
0.81000, 50.0
0.82000, 45.0
0.83000, 48.0
0.84000, 39.0
0.85000, 42.0
0.86000, 47.0
0.87000, 53.0
0.88000, 52.0
0.89000, 53.0
0.90000, 58.0
0.91000, 45.0
0.92000, 61.0
0.93000, 58.0
0.94000, 45.0
0.95000, 57.0
0.96000, 55.0
0.97000, 59.0
0.98000, 54.0
0.99000, 53.0
1.00000, 67.0
1.01000, 57.0
1.02000, 57.0
1.03000, 57.0
1.04000, 52.0
1.05000, 51.0
1.06000, 54.0
1.07000, 62.0
1.08000, 59.0
1.09000, 57.0
1.10000, 54.0
1.11000, 61.0
1.12000, 64.0
1.13000, 66.0
1.14000, 54.0
1.15000, 62.0
1.16000, 60.0
1.17000, 55.0
1.18000, 60.0
1.19000, 65.0
1.20000, 58.0
1.21000, 50.0
1.22000, 66.0
1.23000, 50.0
1.24000, 56.0
1.25000, 56.0
1.26000, 54.0
1.27000, 61.0
1.28000, 66.0
1.29000, 51.0
1.30000, 55.0
1.31000, 64.0
1.32000, 60.0
1.33000, 58.0
1.34000, 51.0
1.35000, 62.0
1.36000, 56.0
1.37000, 58.0
1.38000, 74.0
1.39000, 65.0
1.40000, 60.0
1.41000, 66.0
1.42000, 51.0
1.43000, 60.0
1.44000, 51.0
1.45000, 54.0
1.46000, 59.0
1.47000, 60.0
1.48000, 54.0
1.49000, 53.0
1.50000, 57.0
1.51000, 51.0
1.52000, 54.0
1.53000, 55.0
1.54000, 53.0
1.55000, 49.0
1.56000, 61.0
1.57000, 56.0
1.58000, 48.0
1.59000, 58.0
1.60000, 61.0
1.61000, 52.0
1.62000, 61.0
1.63000, 48.0
1.64000, 58.0
1.65000, 62.0
1.66000, 64.0
1.67000, 54.0
1.68000, 64.0
1.69000, 59.0
1.70000, 64.0
1.71000, 64.0
1.72000, 68.0
1.73000, 71.0
1.74000, 65.0
1.75000, 76.0
1.76000, 79.0
1.77000, 66.0
1.78000, 63.0
1.79000, 66.0
1.80000, 67.0
1.81000, 65.0
1.82000, 49.0
1.83000, 49.0
1.84000, 55.0
1.85000, 54.0
1.86000, 45.0
1.87000, 41.0
1.88000, 46.0
1.89000, 44.0
1.90000, 51.0
1.91000, 46.0
1.92000, 61.0
1.93000, 51.0
1.94000, 47.0
1.95000, 55.0
1.96000, 50.0
1.97000, 60.0
1.98000, 66.0
1.99000, 68.0
2.00000, 64.0
2.01000, 83.0
2.02000, 73.0
2.03000, 78.0
2.04000, 81.0
2.05000, 64.0
2.06000, 74.0
2.07000, 56.0
2.08000, 62.0
2.09000, 61.0
2.10000, 56.0
2.11000, 59.0
2.12000, 58.0
2.13000, 60.0
2.14000, 58.0
2.15000, 59.0
2.16000, 64.0
2.17000, 68.0
2.18000, 87.0
2.19000, 125.0
2.20000, 177.0
2.21000, 250.0
2.22000, 338.0
2.23000, 463.0
2.24000, 611.0
2.25000, 844.0
2.26000, 1123.0
2.27000, 1374.0
2.28000, 1603.0
2.29000, 1777.0
2.30000, 1854.0
2.31000, 1948.0
2.32000, 1935.0
2.33000, 1740.0
2.34000, 1545.0
2.35000, 1334.0
2.36000, 1162.0
2.37000, 904.0
2.38000, 809.0
2.39000, 661.0
2.40000, 539.0
2.41000, 503.0
2.42000, 417.0
2.43000, 394.0
2.44000, 342.0
2.45000, 312.0
2.46000, 301.0
2.47000, 246.0
2.48000, 219.0
2.49000, 176.0
2.50000, 169.0
2.51000, 147.0
2.52000, 126.0
2.53000, 137.0
2.54000, 80.0
2.55000, 75.0
2.56000, 60.0
2.57000, 59.0
2.58000, 48.0
2.59000, 44.0
2.60000, 40.0
2.61000, 35.0
2.62000, 34.0
2.63000, 33.0
2.64000, 29.0
2.65000, 30.0
2.66000, 35.0
2.67000, 30.0
2.68000, 26.0
2.69000, 24.0
2.70000, 27.0
2.71000, 24.0
2.72000, 28.0
2.73000, 22.0
2.74000, 23.0
2.75000, 18.0
2.76000, 31.0
2.77000, 23.0
2.78000, 28.0
2.79000, 31.0
2.80000, 25.0
2.81000, 28.0
2.82000, 25.0
2.83000, 35.0
2.84000, 28.0
2.85000, 26.0
2.86000, 32.0
2.87000, 28.0
2.88000, 19.0
2.89000, 18.0
2.90000, 15.0
2.91000, 23.0
2.92000, 18.0
2.93000, 25.0
2.94000, 24.0
2.95000, 16.0
2.96000, 15.0
2.97000, 16.0
2.98000, 25.0
2.99000, 10.0
3.00000, 31.0
3.01000, 19.0
3.02000, 21.0
3.03000, 23.0
3.04000, 26.0
3.05000, 21.0
3.06000, 22.0
3.07000, 19.0
3.08000, 22.0
3.09000, 18.0
3.10000, 16.0
3.11000, 16.0
3.12000, 16.0
3.13000, 23.0
3.14000, 22.0
3.15000, 24.0
3.16000, 19.0
3.17000, 25.0
3.18000, 17.0
3.19000, 24.0
3.20000, 25.0
3.21000, 23.0
3.22000, 18.0
3.23000, 15.0
3.24000, 24.0
3.25000, 20.0
3.26000, 20.0
3.27000, 15.0
3.28000, 29.0
3.29000, 16.0
3.30000, 22.0
3.31000, 22.0
3.32000, 18.0
3.33000, 20.0
3.34000, 19.0
3.35000, 15.0
3.36000, 20.0
3.37000, 20.0
3.38000, 20.0
3.39000, 26.0
3.40000, 22.0
3.41000, 22.0
3.42000, 13.0
3.43000, 20.0
3.44000, 15.0
3.45000, 16.0
3.46000, 20.0
3.47000, 20.0
3.48000, 17.0
3.49000, 10.0
3.50000, 9.0
3.51000, 20.0
3.52000, 29.0
3.53000, 21.0
3.54000, 9.0
3.55000, 14.0
3.56000, 18.0
3.57000, 18.0
3.58000, 23.0
3.59000, 27.0
3.60000, 23.0
3.61000, 15.0
3.62000, 20.0
3.63000, 20.0
3.64000, 25.0
3.65000, 15.0
3.66000, 29.0
3.67000, 22.0
3.68000, 22.0
3.69000, 15.0
3.70000, 15.0
3.71000, 13.0
3.72000, 23.0
3.73000, 14.0
3.74000, 15.0
3.75000, 25.0
3.76000, 10.0
3.77000, 26.0
3.78000, 25.0
3.79000, 18.0
3.80000, 21.0
3.81000, 15.0
3.82000, 15.0
3.83000, 18.0
3.84000, 16.0
3.85000, 22.0
3.86000, 25.0
3.87000, 19.0
3.88000, 9.0
3.89000, 23.0
3.90000, 14.0
3.91000, 15.0
3.92000, 15.0
3.93000, 14.0
3.94000, 16.0
3.95000, 21.0
3.96000, 15.0
3.97000, 15.0
3.98000, 17.0
3.99000, 16.0
4.00000, 16.0
4.01000, 7.0
4.02000, 18.0
4.03000, 15.0
4.04000, 19.0
4.05000, 14.0
4.06000, 19.0
4.07000, 16.0
4.08000, 18.0
4.09000, 16.0
4.10000, 17.0
4.11000, 9.0
4.12000, 13.0
4.13000, 12.0
4.14000, 12.0
4.15000, 16.0
4.16000, 9.0
4.17000, 15.0
4.18000, 15.0
4.19000, 12.0
4.20000, 16.0
4.21000, 23.0
4.22000, 12.0
4.23000, 21.0
4.24000, 17.0
4.25000, 17.0
4.26000, 16.0
4.27000, 16.0
4.28000, 9.0
4.29000, 15.0
4.30000, 14.0
4.31000, 11.0
4.32000, 11.0
4.33000, 12.0
4.34000, 8.0
4.35000, 6.0
4.36000, 16.0
4.37000, 10.0
4.38000, 23.0
4.39000, 11.0
4.40000, 12.0
4.41000, 15.0
4.42000, 14.0
4.43000, 9.0
4.44000, 13.0
4.45000, 20.0
4.46000, 14.0
4.47000, 11.0
4.48000, 21.0
4.49000, 14.0
4.50000, 10.0
4.51000, 9.0
4.52000, 17.0
4.53000, 10.0
4.54000, 11.0
4.55000, 15.0
4.56000, 12.0
4.57000, 21.0
4.58000, 20.0
4.59000, 8.0
4.60000, 13.0
4.61000, 15.0
4.62000, 8.0
4.63000, 11.0
4.64000, 12.0
4.65000, 14.0
4.66000, 10.0
4.67000, 13.0
4.68000, 19.0
4.69000, 18.0
4.70000, 17.0
4.71000, 17.0
4.72000, 15.0
4.73000, 19.0
4.74000, 14.0
4.75000, 11.0
4.76000, 11.0
4.77000, 15.0
4.78000, 15.0
4.79000, 15.0
4.80000, 13.0
4.81000, 17.0
4.82000, 15.0
4.83000, 13.0
4.84000, 16.0
4.85000, 13.0
4.86000, 11.0
4.87000, 13.0
4.88000, 12.0
4.89000, 14.0
4.90000, 12.0
4.91000, 8.0
4.92000, 15.0
4.93000, 11.0
4.94000, 9.0
4.95000, 12.0
4.96000, 14.0
4.97000, 11.0
4.98000, 12.0
4.99000, 11.0
5.00000, 13.0
5.01000, 11.0
5.02000, 8.0
5.03000, 9.0
5.04000, 10.0
5.05000, 10.0
5.06000, 8.0
5.07000, 10.0
5.08000, 13.0
5.09000, 10.0
5.10000, 10.0
5.11000, 11.0
5.12000, 10.0
5.13000, 13.0
5.14000, 13.0
5.15000, 10.0
5.16000, 12.0
5.17000, 10.0
5.18000, 11.0
5.19000, 10.0
5.20000, 12.0
5.21000, 11.0
5.22000, 11.0
5.23000, 12.0
5.24000, 7.0
5.25000, 15.0
5.26000, 8.0
5.27000, 11.0
5.28000, 8.0
5.29000, 9.0
5.30000, 9.0
5.31000, 5.0
5.32000, 10.0
5.33000, 6.0
5.34000, 13.0
5.35000, 6.0
5.36000, 13.0
5.37000, 10.0
5.38000, 8.0
5.39000, 7.0
5.40000, 11.0
5.41000, 8.0
5.42000, 10.0
5.43000, 12.0
5.44000, 13.0
5.45000, 12.0
5.46000, 9.0
5.47000, 11.0
5.48000, 13.0
5.49000, 9.0
5.50000, 13.0
5.51000, 7.0
5.52000, 11.0
5.53000, 9.0
5.54000, 13.0
5.55000, 10.0
5.56000, 9.0
5.57000, 9.0
5.58000, 11.0
5.59000, 8.0
5.60000, 11.0
5.61000, 14.0
5.62000, 11.0
5.63000, 12.0
5.64000, 14.0
5.65000, 7.0
5.66000, 9.0
5.67000, 10.0
5.68000, 10.0
5.69000, 5.0
5.70000, 4.0
5.71000, 8.0
5.72000, 6.0
5.73000, 7.0
5.74000, 12.0
5.75000, 8.0
5.76000, 5.0
5.77000, 8.0
5.78000, 9.0
5.79000, 8.0
5.80000, 10.0
5.81000, 7.0
5.82000, 10.0
5.83000, 10.0
5.84000, 8.0
5.85000, 12.0
5.86000, 8.0
5.87000, 8.0
5.88000, 8.0
5.89000, 10.0
5.90000, 10.0
5.91000, 8.0
5.92000, 8.0
5.93000, 9.0
5.94000, 10.0
5.95000, 8.0
5.96000, 10.0
5.97000, 7.0
5.98000, 9.0
5.99000, 8.0
6.00000, 6.0
6.01000, 7.0
6.02000, 14.0
6.03000, 7.0
6.04000, 10.0
6.05000, 6.0
6.06000, 9.0
6.07000, 9.0
6.08000, 8.0
6.09000, 8.0
6.10000, 9.0
6.11000, 10.0
6.12000, 8.0
6.13000, 7.0
6.14000, 8.0
6.15000, 6.0
6.16000, 11.0
6.17000, 9.0
6.18000, 7.0
6.19000, 11.0
6.20000, 9.0
6.21000, 7.0
6.22000, 7.0
6.23000, 10.0
6.24000, 10.0
6.25000, 9.0
6.26000, 9.0
6.27000, 5.0
6.28000, 8.0
6.29000, 7.0
6.30000, 10.0
6.31000, 6.0
6.32000, 5.0
6.33000, 7.0
6.34000, 12.0
6.35000, 7.0
6.36000, 5.0
6.37000, 9.0
6.38000, 9.0
6.39000, 7.0
6.40000, 10.0
6.41000, 7.0
6.42000, 6.0
6.43000, 8.0
6.44000, 8.0
6.45000, 10.0
6.46000, 5.0
6.47000, 7.0
6.48000, 8.0
6.49000, 6.0
6.50000, 4.0
6.51000, 6.0
6.52000, 6.0
6.53000, 6.0
6.54000, 8.0
6.55000, 7.0
6.56000, 6.0
6.57000, 5.0
6.58000, 8.0
6.59000, 4.0
6.60000, 8.0
6.61000, 7.0
6.62000, 10.0
6.63000, 7.0
6.64000, 6.0
6.65000, 5.0
6.66000, 6.0
6.67000, 7.0
6.68000, 7.0
6.69000, 6.0
6.70000, 4.0
6.71000, 5.0
6.72000, 8.0
6.73000, 4.0
6.74000, 5.0
6.75000, 6.0
6.76000, 6.0
6.77000, 5.0
6.78000, 8.0
6.79000, 4.0
6.80000, 8.0
6.81000, 6.0
6.82000, 6.0
6.83000, 6.0
6.84000, 4.0
6.85000, 7.0
6.86000, 4.0
6.87000, 3.0
6.88000, 7.0
6.89000, 8.0
6.90000, 8.0
6.91000, 5.0
6.92000, 4.0
6.93000, 6.0
6.94000, 6.0
6.95000, 7.0
6.96000, 6.0
6.97000, 5.0
6.98000, 4.0
6.99000, 4.0
7.00000, 8.0
7.01000, 8.0
7.02000, 5.0
7.03000, 7.0
7.04000, 6.0
7.05000, 7.0
7.06000, 6.0
7.07000, 4.0
7.08000, 10.0
7.09000, 5.0
7.10000, 5.0
7.11000, 9.0
7.12000, 5.0
7.13000, 2.0
7.14000, 4.0
7.15000, 7.0
7.16000, 8.0
7.17000, 2.0
7.18000, 7.0
7.19000, 7.0
7.20000, 4.0
7.21000, 5.0
7.22000, 4.0
7.23000, 3.0
7.24000, 5.0
7.25000, 6.0
7.26000, 7.0
7.27000, 3.0
7.28000, 1.0
7.29000, 6.0
7.30000, 3.0
7.31000, 7.0
7.32000, 4.0
7.33000, 6.0
7.34000, 6.0
7.35000, 4.0
7.36000, 5.0
7.37000, 6.0
7.38000, 5.0
7.39000, 4.0
7.40000, 2.0
7.41000, 2.0
7.42000, 4.0
7.43000, 5.0
7.44000, 4.0
7.45000, 3.0
7.46000, 4.0
7.47000, 7.0
7.48000, 1.0
7.49000, 4.0
7.50000, 5.0
7.51000, 3.0
7.52000, 1.0
7.53000, 6.0
7.54000, 4.0
7.55000, 2.0
7.56000, 6.0
7.57000, 7.0
7.58000, 5.0
7.59000, 6.0
7.60000, 4.0
7.61000, 6.0
7.62000, 4.0
7.63000, 7.0
7.64000, 4.0
7.65000, 5.0
7.66000, 6.0
7.67000, 5.0
7.68000, 4.0
7.69000, 3.0
7.70000, 2.0
7.71000, 5.0
7.72000, 6.0
7.73000, 4.0
7.74000, 4.0
7.75000, 5.0
7.76000, 4.0
7.77000, 3.0
7.78000, 3.0
7.79000, 2.0
7.80000, 4.0
7.81000, 4.0
7.82000, 4.0
7.83000, 4.0
7.84000, 5.0
7.85000, 4.0
7.86000, 4.0
7.87000, 5.0
7.88000, 1.0
7.89000, 2.0
7.90000, 3.0
7.91000, 2.0
7.92000, 4.0
7.93000, 7.0
7.94000, 1.0
7.95000, 1.0
7.96000, 3.0
7.97000, 5.0
7.98000, 3.0
7.99000, 2.0
8.00000, 2.0
8.01000, 4.0
8.02000, 3.0
8.03000, 3.0
8.04000, 2.0
8.05000, 5.0
8.06000, 3.0
8.07000, 5.0
8.08000, 2.0
8.09000, 2.0
8.10000, 4.0
8.11000, 1.0
8.12000, 2.0
8.13000, 6.0
8.14000, 5.0
8.15000, 4.0
8.16000, 4.0
8.17000, 4.0
8.18000, 5.0
8.19000, 5.0
8.20000, 4.0
8.21000, 2.0
8.22000, 3.0
8.23000, 4.0
8.24000, 3.0
8.25000, 4.0
8.26000, 4.0
8.27000, 3.0
8.28000, 3.0
8.29000, 2.0
8.30000, 3.0
8.31000, 6.0
8.32000, 2.0
8.33000, 2.0
8.34000, 4.0
8.35000, 4.0
8.36000, 3.0
8.37000, 3.0
8.38000, 4.0
8.39000, 2.0
8.40000, 3.0
8.41000, 3.0
8.42000, 0.0
8.43000, 2.0
8.44000, 6.0
8.45000, 2.0
8.46000, 1.0
8.47000, 2.0
8.48000, 0.0
8.49000, 7.0
8.50000, 3.0
8.51000, 4.0
8.52000, 3.0
8.53000, 3.0
8.54000, 4.0
8.55000, 5.0
8.56000, 4.0
8.57000, 3.0
8.58000, 2.0
8.59000, 1.0
8.60000, 2.0
8.61000, 0.0
8.62000, 1.0
8.63000, 4.0
8.64000, 3.0
8.65000, 1.0
8.66000, 4.0
8.67000, 2.0
8.68000, 0.0
8.69000, 1.0
8.70000, 2.0
8.71000, 3.0
8.72000, 1.0
8.73000, 0.0
8.74000, 2.0
8.75000, 3.0
8.76000, 2.0
8.77000, 4.0
8.78000, 0.0
8.79000, 1.0
8.80000, 1.0
8.81000, 2.0
8.82000, 0.0
8.83000, 1.0
8.84000, 3.0
8.85000, 2.0
8.86000, 5.0
8.87000, 2.0
8.88000, 1.0
8.89000, 1.0
8.90000, 3.0
8.91000, 1.0
8.92000, 0.0
8.93000, 0.0
8.94000, 1.0
8.95000, 3.0
8.96000, 2.0
8.97000, 2.0
8.98000, 0.0
8.99000, 0.0
9.00000, 2.0
9.01000, 2.0
9.02000, 0.0
9.03000, 2.0
9.04000, 1.0
9.05000, 2.0
9.06000, 1.0
9.07000, 1.0
9.08000, 1.0
9.09000, 3.0
9.10000, 1.0
9.11000, 0.0
9.12000, 3.0
9.13000, 0.0
9.14000, 1.0
9.15000, 0.0
9.16000, 0.0
9.17000, 2.0
9.18000, 1.0
9.19000, 1.0
9.20000, 2.0
9.21000, 1.0
9.22000, 1.0
9.23000, 0.0
9.24000, 0.0
9.25000, 2.0
9.26000, 2.0
9.27000, 2.0
9.28000, 4.0
9.29000, 1.0
9.30000, 0.0
9.31000, 0.0
9.32000, 3.0
9.33000, 1.0
9.34000, 0.0
9.35000, 0.0
9.36000, 0.0
9.37000, 3.0
9.38000, 2.0
9.39000, 2.0
9.40000, 0.0
9.41000, 1.0
9.42000, 0.0
9.43000, 1.0
9.44000, 0.0
9.45000, 3.0
9.46000, 1.0
9.47000, 1.0
9.48000, 1.0
9.49000, 1.0
9.50000, 2.0
9.51000, 1.0
9.52000, 1.0
9.53000, 2.0
9.54000, 2.0
9.55000, 0.0
9.56000, 0.0
9.57000, 0.0
9.58000, 3.0
9.59000, 1.0
9.60000, 0.0
9.61000, 0.0
9.62000, 0.0
9.63000, 0.0
9.64000, 1.0
9.65000, 2.0
9.66000, 0.0
9.67000, 0.0
9.68000, 0.0
9.69000, 0.0
9.70000, 0.0
9.71000, 2.0
9.72000, 0.0
9.73000, 1.0
9.74000, 0.0
9.75000, 0.0
9.76000, 0.0
9.77000, 1.0
9.78000, 2.0
9.79000, 0.0
9.80000, 0.0
9.81000, 1.0
9.82000, 2.0
9.83000, 0.0
9.84000, 0.0
9.85000, 0.0
9.86000, 0.0
9.87000, 0.0
9.88000, 0.0
9.89000, 0.0
9.90000, 0.0
9.91000, 0.0
9.92000, 0.0
9.93000, 0.0
9.94000, 0.0
9.95000, 0.0
9.96000, 0.0
9.97000, 0.0
9.98000, 0.0
9.99000, 0.0
10.00000, 0.0
10.01000, 0.0
10.02000, 0.0
10.03000, 0.0
10.04000, 0.0
10.05000, 0.0
10.06000, 0.0
10.07000, 0.0
10.08000, 0.0
10.09000, 0.0
10.10000, 0.0
10.11000, 0.0
10.12000, 0.0
10.13000, 0.0
10.13500, 0.0
#ENDOFDATA   :