File: Spectras 300724/B15_15k_310724_1.txt
#FORMAT      : EMSA/MAS Spectral Data File
#VERSION     : 1.0
#TITLE       : B15_15k_310724_1
#DATE        : 30-JUL-2024
#TIME        : 09:50
#OWNER       :
#NPOINTS     : 1024.0
#NCOLUMNS    : 1.0
#XUNITS      : keV
#YUNITS      : counts
#DATATYPE    : XY
#XPERCHAN    : 0.02
#OFFSET      : -0.2
#SIGNALTYPE  : EDS
#CHOFFSET    : 10.0
#LIVETIME    : 60.0859
#REALTIME    : 60.9696
#BEAMKV      : 15.0
#MAGCAM      : 12000.0
#XTILTSTGE   : 0.0
#AZIMANGLE   : 0.0
#ELEVANGLE   : 25.5
#XPOSITION mm: -1.6963
#YPOSITION mm: -1.4368
#ZPOSITION mm: 13.7246
##OXINSTPT   : 2
##OXINSTSTROB: 69.69
##OXINSTELEMS: 6,8,29,79,78,14
##OXINSTLABEL: 6, 0.277, C K?1_2
##OXINSTLABEL: 8, 0.525, O K?1
##OXINSTLABEL: 29, 8.048, Cu K?1
##OXINSTLABEL: 29, 8.905, Cu K?1
##OXINSTLABEL: 29, 0.930, Cu L?1,2
##OXINSTLABEL: 29, 0.832, Cu L?
##OXINSTLABEL: 29, 0.811, Cu Ll
##OXINSTLABEL: 79, 9.713, Au L?1
##OXINSTLABEL: 79, 11.443, Au L?1
##OXINSTLABEL: 79, 11.585, Au L?2
##OXINSTLABEL: 79, 10.308, Au L?
##OXINSTLABEL: 79, 13.382, Au L?1
##OXINSTLABEL: 79, 13.710, Au L?2
##OXINSTLABEL: 79, 8.494, Au Ll
##OXINSTLABEL: 79, 2.123, Au M?1
##OXINSTLABEL: 79, 2.410, Au M?
##OXINSTLABEL: 79, 1.648, Au M?2
##OXINSTLABEL: 79, 0.265, Au N4-N6
##OXINSTLABEL: 79, 0.251, Au N5-N6,7
##OXINSTLABEL: 78, 9.442, Pt L?1
##OXINSTLABEL: 78, 11.071, Pt L?1
##OXINSTLABEL: 78, 11.251, Pt L?2
##OXINSTLABEL: 78, 9.975, Pt L?
##OXINSTLABEL: 78, 12.942, Pt L?1
##OXINSTLABEL: 78, 13.271, Pt L?2
##OXINSTLABEL: 78, 8.268, Pt Ll
##OXINSTLABEL: 78, 2.050, Pt M?1
##OXINSTLABEL: 78, 2.331, Pt M?
##OXINSTLABEL: 78, 1.592, Pt M?2
##OXINSTLABEL: 78, 0.258, Pt N4-N6
##OXINSTLABEL: 78, 0.244, Pt N5-N6,7
##OXINSTLABEL: 14, 1.740, Si K?1
#SPECTRUM    : Spectral Data Starts Here
-0.20000, 0.0
-0.18000, 0.0
-0.16000, 0.0
-0.14000, 0.0
-0.12000, 0.0
-0.10000, 1.0
-0.08000, 7.0
-0.06000, 51.0
-0.04000, 287.0
-0.02000, 972.0
0.00000, 2319.0
0.02000, 4054.0
0.04000, 5111.0
0.06000, 4599.0
0.08000, 2973.0
0.10000, 1420.0
0.12000, 526.0
0.14000, 231.0
0.16000, 180.0
0.18000, 159.0
0.20000, 141.0
0.22000, 160.0
0.24000, 232.0
0.26000, 277.0
0.28000, 281.0
0.30000, 242.0
0.32000, 151.0
0.34000, 80.0
0.36000, 52.0
0.38000, 55.0
0.40000, 61.0
0.42000, 68.0
0.44000, 111.0
0.46000, 214.0
0.48000, 400.0
0.50000, 634.0
0.52000, 766.0
0.54000, 645.0
0.56000, 442.0
0.58000, 249.0
0.60000, 132.0
0.62000, 93.0
0.64000, 72.0
0.66000, 70.0
0.68000, 70.0
0.70000, 79.0
0.72000, 82.0
0.74000, 77.0
0.76000, 82.0
0.78000, 89.0
0.80000, 100.0
0.82000, 103.0
0.84000, 102.0
0.86000, 105.0
0.88000, 113.0
0.90000, 133.0
0.92000, 134.0
0.94000, 135.0
0.96000, 143.0
0.98000, 147.0
1.00000, 143.0
1.02000, 148.0
1.04000, 158.0
1.06000, 155.0
1.08000, 175.0
1.10000, 173.0
1.12000, 166.0
1.14000, 169.0
1.16000, 162.0
1.18000, 162.0
1.20000, 160.0
1.22000, 170.0
1.24000, 205.0
1.26000, 186.0
1.28000, 186.0
1.30000, 210.0
1.32000, 210.0
1.34000, 195.0
1.36000, 180.0
1.38000, 180.0
1.40000, 201.0
1.42000, 181.0
1.44000, 186.0
1.46000, 205.0
1.48000, 224.0
1.50000, 249.0
1.52000, 240.0
1.54000, 230.0
1.56000, 233.0
1.58000, 249.0
1.60000, 287.0
1.62000, 455.0
1.64000, 1081.0
1.66000, 2683.0
1.68000, 5810.0
1.70000, 10358.0
1.72000, 14848.0
1.74000, 16971.0
1.76000, 15806.0
1.78000, 11863.0
1.80000, 7323.0
1.82000, 3924.0
1.84000, 1969.0
1.86000, 1045.0
1.88000, 593.0
1.90000, 331.0
1.92000, 198.0
1.94000, 138.0
1.96000, 105.0
1.98000, 97.0
2.00000, 99.0
2.02000, 99.0
2.04000, 93.0
2.06000, 87.0
2.08000, 94.0
2.10000, 88.0
2.12000, 86.0
2.14000, 91.0
2.16000, 93.0
2.18000, 113.0
2.20000, 160.0
2.22000, 262.0
2.24000, 456.0
2.26000, 672.0
2.28000, 879.0
2.30000, 1074.0
2.32000, 1039.0
2.34000, 869.0
2.36000, 684.0
2.38000, 512.0
2.40000, 384.0
2.42000, 289.0
2.44000, 238.0
2.46000, 212.0
2.48000, 188.0
2.50000, 162.0
2.52000, 133.0
2.54000, 110.0
2.56000, 90.0
2.58000, 82.0
2.60000, 74.0
2.62000, 79.0
2.64000, 71.0
2.66000, 72.0
2.68000, 64.0
2.70000, 71.0
2.72000, 68.0
2.74000, 63.0
2.76000, 70.0
2.78000, 67.0
2.80000, 64.0
2.82000, 67.0
2.84000, 69.0
2.86000, 64.0
2.88000, 68.0
2.90000, 76.0
2.92000, 56.0
2.94000, 53.0
2.96000, 66.0
2.98000, 67.0
3.00000, 65.0
3.02000, 70.0
3.04000, 66.0
3.06000, 60.0
3.08000, 65.0
3.10000, 64.0
3.12000, 64.0
3.14000, 71.0
3.16000, 71.0
3.18000, 68.0
3.20000, 64.0
3.22000, 66.0
3.24000, 63.0
3.26000, 59.0
3.28000, 70.0
3.30000, 67.0
3.32000, 68.0
3.34000, 68.0
3.36000, 61.0
3.38000, 68.0
3.40000, 71.0
3.42000, 67.0
3.44000, 71.0
3.46000, 63.0
3.48000, 59.0
3.50000, 57.0
3.52000, 63.0
3.54000, 68.0
3.56000, 55.0
3.58000, 61.0
3.60000, 60.0
3.62000, 49.0
3.64000, 50.0
3.66000, 53.0
3.68000, 45.0
3.70000, 45.0
3.72000, 53.0
3.74000, 56.0
3.76000, 56.0
3.78000, 48.0
3.80000, 48.0
3.82000, 57.0
3.84000, 54.0
3.86000, 50.0
3.88000, 49.0
3.90000, 55.0
3.92000, 54.0
3.94000, 52.0
3.96000, 57.0
3.98000, 56.0
4.00000, 49.0
4.02000, 47.0
4.04000, 49.0
4.06000, 53.0
4.08000, 58.0
4.10000, 56.0
4.12000, 46.0
4.14000, 49.0
4.16000, 52.0
4.18000, 47.0
4.20000, 46.0
4.22000, 47.0
4.24000, 44.0
4.26000, 40.0
4.28000, 46.0
4.30000, 46.0
4.32000, 52.0
4.34000, 52.0
4.36000, 45.0
4.38000, 41.0
4.40000, 45.0
4.42000, 45.0
4.44000, 42.0
4.46000, 42.0
4.48000, 50.0
4.50000, 46.0
4.52000, 42.0
4.54000, 47.0
4.56000, 50.0
4.58000, 42.0
4.60000, 39.0
4.62000, 42.0
4.64000, 35.0
4.66000, 33.0
4.68000, 36.0
4.70000, 39.0
4.72000, 47.0
4.74000, 47.0
4.76000, 41.0
4.78000, 38.0
4.80000, 39.0
4.82000, 40.0
4.84000, 43.0
4.86000, 44.0
4.88000, 35.0
4.90000, 32.0
4.92000, 32.0
4.94000, 39.0
4.96000, 43.0
4.98000, 39.0
5.00000, 35.0
5.02000, 40.0
5.04000, 35.0
5.06000, 37.0
5.08000, 48.0
5.10000, 45.0
5.12000, 39.0
5.14000, 35.0
5.16000, 33.0
5.18000, 36.0
5.20000, 34.0
5.22000, 40.0
5.24000, 40.0
5.26000, 28.0
5.28000, 28.0
5.30000, 36.0
5.32000, 42.0
5.34000, 35.0
5.36000, 35.0
5.38000, 42.0
5.40000, 39.0
5.42000, 38.0
5.44000, 37.0
5.46000, 32.0
5.48000, 31.0
5.50000, 35.0
5.52000, 33.0
5.54000, 25.0
5.56000, 32.0
5.58000, 33.0
5.60000, 32.0
5.62000, 35.0
5.64000, 33.0
5.66000, 34.0
5.68000, 32.0
5.70000, 31.0
5.72000, 30.0
5.74000, 29.0
5.76000, 25.0
5.78000, 24.0
5.80000, 25.0
5.82000, 29.0
5.84000, 28.0
5.86000, 26.0
5.88000, 29.0
5.90000, 24.0
5.92000, 24.0
5.94000, 27.0
5.96000, 24.0
5.98000, 25.0
6.00000, 24.0
6.02000, 29.0
6.04000, 32.0
6.06000, 31.0
6.08000, 28.0
6.10000, 25.0
6.12000, 26.0
6.14000, 29.0
6.16000, 33.0
6.18000, 30.0
6.20000, 30.0
6.22000, 34.0
6.24000, 28.0
6.26000, 25.0
6.28000, 27.0
6.30000, 25.0
6.32000, 26.0
6.34000, 30.0
6.36000, 26.0
6.38000, 22.0
6.40000, 26.0
6.42000, 27.0
6.44000, 26.0
6.46000, 28.0
6.48000, 24.0
6.50000, 18.0
6.52000, 20.0
6.54000, 20.0
6.56000, 25.0
6.58000, 23.0
6.60000, 22.0
6.62000, 23.0
6.64000, 24.0
6.66000, 32.0
6.68000, 28.0
6.70000, 24.0
6.72000, 24.0
6.74000, 24.0
6.76000, 25.0
6.78000, 21.0
6.80000, 19.0
6.82000, 22.0
6.84000, 20.0
6.86000, 20.0
6.88000, 24.0
6.90000, 26.0
6.92000, 27.0
6.94000, 28.0
6.96000, 28.0
6.98000, 27.0
7.00000, 21.0
7.02000, 18.0
7.04000, 22.0
7.06000, 21.0
7.08000, 21.0
7.10000, 17.0
7.12000, 18.0
7.14000, 21.0
7.16000, 19.0
7.18000, 17.0
7.20000, 18.0
7.22000, 22.0
7.24000, 20.0
7.26000, 21.0
7.28000, 23.0
7.30000, 22.0
7.32000, 23.0
7.34000, 26.0
7.36000, 25.0
7.38000, 19.0
7.40000, 16.0
7.42000, 18.0
7.44000, 23.0
7.46000, 22.0
7.48000, 18.0
7.50000, 21.0
7.52000, 16.0
7.54000, 17.0
7.56000, 22.0
7.58000, 19.0
7.60000, 18.0
7.62000, 15.0
7.64000, 19.0
7.66000, 22.0
7.68000, 18.0
7.70000, 16.0
7.72000, 11.0
7.74000, 11.0
7.76000, 14.0
7.78000, 13.0
7.80000, 13.0
7.82000, 18.0
7.84000, 19.0
7.86000, 18.0
7.88000, 18.0
7.90000, 19.0
7.92000, 24.0
7.94000, 27.0
7.96000, 21.0
7.98000, 18.0
8.00000, 16.0
8.02000, 15.0
8.04000, 15.0
8.06000, 14.0
8.08000, 17.0
8.10000, 17.0
8.12000, 15.0
8.14000, 14.0
8.16000, 13.0
8.18000, 17.0
8.20000, 18.0
8.22000, 18.0
8.24000, 16.0
8.26000, 11.0
8.28000, 12.0
8.30000, 17.0
8.32000, 21.0
8.34000, 16.0
8.36000, 14.0
8.38000, 17.0
8.40000, 14.0
8.42000, 16.0
8.44000, 15.0
8.46000, 13.0
8.48000, 16.0
8.50000, 17.0
8.52000, 15.0
8.54000, 15.0
8.56000, 15.0
8.58000, 14.0
8.60000, 13.0
8.62000, 16.0
8.64000, 19.0
8.66000, 14.0
8.68000, 12.0
8.70000, 12.0
8.72000, 12.0
8.74000, 10.0
8.76000, 12.0
8.78000, 13.0
8.80000, 13.0
8.82000, 17.0
8.84000, 13.0
8.86000, 14.0
8.88000, 19.0
8.90000, 11.0
8.92000, 7.0
8.94000, 8.0
8.96000, 10.0
8.98000, 14.0
9.00000, 16.0
9.02000, 11.0
9.04000, 8.0
9.06000, 9.0
9.08000, 12.0
9.10000, 12.0
9.12000, 10.0
9.14000, 8.0
9.16000, 9.0
9.18000, 13.0
9.20000, 17.0
9.22000, 17.0
9.24000, 15.0
9.26000, 9.0
9.28000, 7.0
9.30000, 10.0
9.32000, 16.0
9.34000, 14.0
9.36000, 11.0
9.38000, 15.0
9.40000, 11.0
9.42000, 9.0
9.44000, 11.0
9.46000, 11.0
9.48000, 11.0
9.50000, 10.0
9.52000, 10.0
9.54000, 10.0
9.56000, 8.0
9.58000, 8.0
9.60000, 13.0
9.62000, 13.0
9.64000, 10.0
9.66000, 10.0
9.68000, 12.0
9.70000, 15.0
9.72000, 13.0
9.74000, 11.0
9.76000, 11.0
9.78000, 11.0
9.80000, 13.0
9.82000, 10.0
9.84000, 11.0
9.86000, 13.0
9.88000, 8.0
9.90000, 7.0
9.92000, 7.0
9.94000, 7.0
9.96000, 9.0
9.98000, 7.0
10.00000, 10.0
10.02000, 9.0
10.04000, 8.0
10.06000, 9.0
10.08000, 9.0
10.10000, 10.0
10.12000, 8.0
10.14000, 5.0
10.16000, 6.0
10.18000, 12.0
10.20000, 11.0
10.22000, 8.0
10.24000, 10.0
10.26000, 10.0
10.28000, 8.0
10.30000, 10.0
10.32000, 12.0
10.34000, 10.0
10.36000, 11.0
10.38000, 12.0
10.40000, 11.0
10.42000, 11.0
10.44000, 10.0
10.46000, 13.0
10.48000, 11.0
10.50000, 7.0
10.52000, 5.0
10.54000, 5.0
10.56000, 7.0
10.58000, 7.0
10.60000, 8.0
10.62000, 9.0
10.64000, 5.0
10.66000, 5.0
10.68000, 7.0
10.70000, 6.0
10.72000, 5.0
10.74000, 5.0
10.76000, 5.0
10.78000, 5.0
10.80000, 7.0
10.82000, 7.0
10.84000, 7.0
10.86000, 6.0
10.88000, 6.0
10.90000, 6.0
10.92000, 9.0
10.94000, 8.0
10.96000, 5.0
10.98000, 6.0
11.00000, 5.0
11.02000, 3.0
11.04000, 4.0
11.06000, 6.0
11.08000, 6.0
11.10000, 8.0
11.12000, 8.0
11.14000, 5.0
11.16000, 4.0
11.18000, 5.0
11.20000, 7.0
11.22000, 8.0
11.24000, 4.0
11.26000, 3.0
11.28000, 5.0
11.30000, 7.0
11.32000, 9.0
11.34000, 6.0
11.36000, 7.0
11.38000, 6.0
11.40000, 6.0
11.42000, 5.0
11.44000, 4.0
11.46000, 4.0
11.48000, 7.0
11.50000, 7.0
11.52000, 6.0
11.54000, 5.0
11.56000, 9.0
11.58000, 8.0
11.60000, 5.0
11.62000, 6.0
11.64000, 6.0
11.66000, 5.0
11.68000, 2.0
11.70000, 3.0
11.72000, 5.0
11.74000, 6.0
11.76000, 6.0
11.78000, 7.0
11.80000, 4.0
11.82000, 3.0
11.84000, 6.0
11.86000, 4.0
11.88000, 2.0
11.90000, 2.0
11.92000, 1.0
11.94000, 2.0
11.96000, 3.0
11.98000, 5.0
12.00000, 5.0
12.02000, 4.0
12.04000, 4.0
12.06000, 3.0
12.08000, 5.0
12.10000, 4.0
12.12000, 2.0
12.14000, 4.0
12.16000, 5.0
12.18000, 5.0
12.20000, 1.0
12.22000, 1.0
12.24000, 2.0
12.26000, 3.0
12.28000, 4.0
12.30000, 5.0
12.32000, 4.0
12.34000, 2.0
12.36000, 3.0
12.38000, 4.0
12.40000, 4.0
12.42000, 3.0
12.44000, 4.0
12.46000, 4.0
12.48000, 5.0
12.50000, 4.0
12.52000, 5.0
12.54000, 4.0
12.56000, 2.0
12.58000, 2.0
12.60000, 3.0
12.62000, 3.0
12.64000, 2.0
12.66000, 3.0
12.68000, 3.0
12.70000, 2.0
12.72000, 2.0
12.74000, 3.0
12.76000, 3.0
12.78000, 3.0
12.80000, 5.0
12.82000, 4.0
12.84000, 3.0
12.86000, 2.0
12.88000, 3.0
12.90000, 2.0
12.92000, 3.0
12.94000, 2.0
12.96000, 3.0
12.98000, 3.0
13.00000, 4.0
13.02000, 5.0
13.04000, 3.0
13.06000, 2.0
13.08000, 2.0
13.10000, 3.0
13.12000, 2.0
13.14000, 2.0
13.16000, 3.0
13.18000, 2.0
13.20000, 1.0
13.22000, 2.0
13.24000, 3.0
13.26000, 3.0
13.28000, 2.0
13.30000, 2.0
13.32000, 2.0
13.34000, 0.0
13.36000, 1.0
13.38000, 2.0
13.40000, 3.0
13.42000, 2.0
13.44000, 2.0
13.46000, 1.0
13.48000, 1.0
13.50000, 2.0
13.52000, 2.0
13.54000, 1.0
13.56000, 1.0
13.58000, 4.0
13.60000, 5.0
13.62000, 2.0
13.64000, 0.0
13.66000, 1.0
13.68000, 1.0
13.70000, 1.0
13.72000, 2.0
13.74000, 3.0
13.76000, 1.0
13.78000, 1.0
13.80000, 0.0
13.82000, 1.0
13.84000, 1.0
13.86000, 2.0
13.88000, 1.0
13.90000, 2.0
13.92000, 1.0
13.94000, 0.0
13.96000, 1.0
13.98000, 1.0
14.00000, 1.0
14.02000, 0.0
14.04000, 1.0
14.06000, 2.0
14.08000, 0.0
14.10000, 0.0
14.12000, 0.0
14.14000, 0.0
14.16000, 0.0
14.18000, 1.0
14.20000, 1.0
14.22000, 1.0
14.24000, 1.0
14.26000, 1.0
14.28000, 2.0
14.30000, 2.0
14.32000, 0.0
14.34000, 1.0
14.36000, 1.0
14.38000, 2.0
14.40000, 1.0
14.42000, 1.0
14.44000, 0.0
14.46000, 1.0
14.48000, 1.0
14.50000, 1.0
14.52000, 0.0
14.54000, 1.0
14.56000, 1.0
14.58000, 1.0
14.60000, 0.0
14.62000, 1.0
14.64000, 1.0
14.66000, 0.0
14.68000, 0.0
14.70000, 1.0
14.72000, 1.0
14.74000, 1.0
14.76000, 1.0
14.78000, 1.0
14.80000, 1.0
14.82000, 1.0
14.84000, 1.0
14.86000, 0.0
14.88000, 0.0
14.90000, 1.0
14.92000, 0.0
14.94000, 0.0
14.96000, 0.0
14.98000, 0.0
15.00000, 0.0
15.02000, 0.0
15.04000, 0.0
15.06000, 0.0
15.08000, 0.0
15.10000, 1.0
15.12000, 0.0
15.14000, 0.0
15.16000, 0.0
15.18000, 0.0
15.20000, 0.0
15.22000, 0.0
15.24000, 0.0
15.26000, 0.0
15.28000, 0.0
15.30000, 0.0
15.32000, 0.0
15.34000, 0.0
15.36000, 0.0
15.38000, 0.0
15.40000, 0.0
15.42000, 0.0
15.44000, 0.0
15.46000, 0.0
15.48000, 0.0
15.50000, 0.0
15.52000, 0.0
15.54000, 0.0
15.56000, 0.0
15.58000, 0.0
15.60000, 0.0
15.62000, 0.0
15.64000, 0.0
15.66000, 0.0
15.68000, 0.0
15.70000, 0.0
15.72000, 0.0
15.74000, 0.0
15.76000, 0.0
15.78000, 0.0
15.80000, 0.0
15.82000, 0.0
15.84000, 0.0
15.86000, 0.0
15.88000, 0.0
15.90000, 0.0
15.92000, 0.0
15.94000, 0.0
15.96000, 0.0
15.98000, 0.0
16.00000, 0.0
16.02000, 0.0
16.04000, 0.0
16.06000, 0.0
16.08000, 0.0
16.10000, 0.0
16.12000, 0.0
16.14000, 0.0
16.16000, 0.0
16.18000, 0.0
16.20000, 0.0
16.22000, 0.0
16.24000, 0.0
16.26000, 0.0
16.28000, 0.0
16.30000, 0.0
16.32000, 0.0
16.34000, 0.0
16.36000, 0.0
16.38000, 0.0
16.40000, 0.0
16.42000, 0.0
16.44000, 0.0
16.46000, 0.0
16.48000, 0.0
16.50000, 0.0
16.52000, 0.0
16.54000, 0.0
16.56000, 0.0
16.58000, 0.0
16.60000, 0.0
16.62000, 0.0
16.64000, 0.0
16.66000, 0.0
16.68000, 0.0
16.70000, 0.0
16.72000, 0.0
16.74000, 0.0
16.76000, 0.0
16.78000, 0.0
16.80000, 0.0
16.82000, 0.0
16.84000, 0.0
16.86000, 0.0
16.88000, 0.0
16.90000, 0.0
16.92000, 0.0
16.94000, 0.0
16.96000, 0.0
16.98000, 0.0
17.00000, 0.0
17.02000, 0.0
17.04000, 0.0
17.06000, 0.0
17.08000, 0.0
17.10000, 0.0
17.12000, 0.0
17.14000, 0.0
17.16000, 0.0
17.18000, 0.0
17.20000, 0.0
17.22000, 0.0
17.24000, 0.0
17.26000, 0.0
17.28000, 0.0
17.30000, 0.0
17.32000, 0.0
17.34000, 0.0
17.36000, 0.0
17.38000, 0.0
17.40000, 0.0
17.42000, 0.0
17.44000, 0.0
17.46000, 0.0
17.48000, 0.0
17.50000, 0.0
17.52000, 0.0
17.54000, 0.0
17.56000, 0.0
17.58000, 0.0
17.60000, 0.0
17.62000, 0.0
17.64000, 0.0
17.66000, 0.0
17.68000, 0.0
17.70000, 0.0
17.72000, 0.0
17.74000, 0.0
17.76000, 0.0
17.78000, 0.0
17.80000, 0.0
17.82000, 0.0
17.84000, 0.0
17.86000, 0.0
17.88000, 0.0
17.90000, 0.0
17.92000, 0.0
17.94000, 0.0
17.96000, 0.0
17.98000, 0.0
18.00000, 0.0
18.02000, 0.0
18.04000, 0.0
18.06000, 0.0
18.08000, 0.0
18.10000, 0.0
18.12000, 0.0
18.14000, 0.0
18.16000, 0.0
18.18000, 0.0
18.20000, 0.0
18.22000, 0.0
18.24000, 0.0
18.26000, 0.0
18.28000, 0.0
18.30000, 0.0
18.32000, 0.0
18.34000, 0.0
18.36000, 0.0
18.38000, 0.0
18.40000, 0.0
18.42000, 0.0
18.44000, 0.0
18.46000, 0.0
18.48000, 0.0
18.50000, 0.0
18.52000, 0.0
18.54000, 0.0
18.56000, 0.0
18.58000, 0.0
18.60000, 0.0
18.62000, 0.0
18.64000, 0.0
18.66000, 0.0
18.68000, 0.0
18.70000, 0.0
18.72000, 0.0
18.74000, 0.0
18.76000, 0.0
18.78000, 0.0
18.80000, 0.0
18.82000, 0.0
18.84000, 0.0
18.86000, 0.0
18.88000, 0.0
18.90000, 0.0
18.92000, 0.0
18.94000, 0.0
18.96000, 0.0
18.98000, 0.0
19.00000, 0.0
19.02000, 0.0
19.04000, 0.0
19.06000, 0.0
19.08000, 0.0
19.10000, 0.0
19.12000, 0.0
19.14000, 0.0
19.16000, 0.0
19.18000, 0.0
19.20000, 0.0
19.22000, 0.0
19.24000, 0.0
19.26000, 0.0
19.28000, 0.0
19.30000, 0.0
19.32000, 0.0
19.34000, 0.0
19.36000, 0.0
19.38000, 0.0
19.40000, 0.0
19.42000, 0.0
19.44000, 0.0
19.46000, 0.0
19.48000, 0.0
19.50000, 0.0
19.52000, 0.0
19.54000, 0.0
19.56000, 0.0
19.58000, 0.0
19.60000, 0.0
19.62000, 0.0
19.64000, 0.0
19.66000, 0.0
19.68000, 0.0
19.70000, 0.0
19.72000, 0.0
19.74000, 0.0
19.76000, 0.0
19.78000, 0.0
19.80000, 0.0
19.82000, 0.0
19.84000, 0.0
19.86000, 0.0
19.88000, 0.0
19.90000, 0.0
19.92000, 0.0
19.94000, 0.0
19.96000, 0.0
19.98000, 0.0
20.00000, 0.0
20.02000, 0.0
20.04000, 0.0
20.06000, 0.0
20.08000, 0.0
20.10000, 0.0
20.12000, 0.0
20.14000, 0.0
20.16000, 0.0
20.18000, 0.0
20.20000, 0.0
20.22000, 0.0
20.24000, 0.0
20.26000, 0.0
#ENDOFDATA   :