File: Spectrums Substarte test 2/B4_Area2_110924_1.txt
#FORMAT      : EMSA/MAS Spectral Data File
#VERSION     : 1.0
#TITLE       : B4_Area2_110924_1
#DATE        : 11-SEP-2024
#TIME        : 10:39
#OWNER       :
#NPOINTS     : 2048.0
#NCOLUMNS    : 1.0
#XUNITS      : keV
#YUNITS      : counts
#DATATYPE    : XY
#XPERCHAN    : 0.005
#OFFSET      : -0.1
#SIGNALTYPE  : EDS
#CHOFFSET    : 20.0
#LIVETIME    : 60.0
#REALTIME    : 60.6707
#BEAMKV      : 10.0
#MAGCAM      : 5000.0
#XTILTSTGE   : 0.0
#AZIMANGLE   : 0.0
#ELEVANGLE   : 25.5
#XPOSITION mm: 1.5360
#YPOSITION mm: 1.0560
#ZPOSITION mm: 13.5296
##OXINSTPT   : 2
##OXINSTSTROB: 69.65
##OXINSTELEMS: 8,16,14,6,42,7
##OXINSTLABEL: 8, 0.525, O K?1
##OXINSTLABEL: 16, 2.308, S K?1
##OXINSTLABEL: 16, 2.464, S K?1
##OXINSTLABEL: 14, 1.740, Si K?1
##OXINSTLABEL: 6, 0.277, C K?1_2
##OXINSTLABEL: 42, 0.193, Mo M?
##OXINSTLABEL: 42, 2.016, Mo Ll
##OXINSTLABEL: 42, 2.120, Mo L?
##OXINSTLABEL: 42, 2.293, Mo L?1
##OXINSTLABEL: 42, 2.395, Mo L?1
##OXINSTLABEL: 42, 2.518, Mo L?2,15
##OXINSTLABEL: 42, 2.624, Mo L?1
##OXINSTLABEL: 42, 2.831, Mo L?2,3
##OXINSTLABEL: 7, 0.392, N K?1_2
#SPECTRUM    : Spectral Data Starts Here
-0.10000, 0.0
-0.09000, 0.0
-0.08000, 1.0
-0.07000, 3.0
-0.06000, 10.0
-0.05000, 14.0
-0.04000, 39.0
-0.03000, 106.0
-0.02000, 208.0
-0.01000, 353.0
0.00000, 533.0
0.01000, 779.0
0.02000, 1061.0
0.03000, 1240.0
0.04000, 1359.0
0.05000, 1333.0
0.06000, 1185.0
0.07000, 954.0
0.08000, 777.0
0.09000, 520.0
0.10000, 345.0
0.11000, 215.0
0.12000, 124.0
0.13000, 92.0
0.14000, 99.0
0.15000, 88.0
0.16000, 93.0
0.17000, 88.0
0.18000, 74.0
0.19000, 75.0
0.20000, 71.0
0.21000, 48.0
0.22000, 48.0
0.23000, 45.0
0.24000, 33.0
0.25000, 39.0
0.26000, 26.0
0.27000, 26.0
0.28000, 27.0
0.29000, 24.0
0.30000, 17.0
0.31000, 14.0
0.32000, 27.0
0.33000, 21.0
0.34000, 15.0
0.35000, 22.0
0.36000, 35.0
0.37000, 27.0
0.38000, 31.0
0.39000, 36.0
0.40000, 40.0
0.41000, 29.0
0.42000, 27.0
0.43000, 29.0
0.44000, 27.0
0.45000, 17.0
0.46000, 22.0
0.47000, 20.0
0.48000, 22.0
0.49000, 18.0
0.50000, 25.0
0.51000, 20.0
0.52000, 27.0
0.53000, 26.0
0.54000, 23.0
0.55000, 33.0
0.56000, 31.0
0.57000, 33.0
0.58000, 21.0
0.59000, 33.0
0.60000, 31.0
0.61000, 24.0
0.62000, 21.0
0.63000, 24.0
0.64000, 33.0
0.65000, 29.0
0.66000, 27.0
0.67000, 28.0
0.68000, 27.0
0.69000, 27.0
0.70000, 31.0
0.71000, 28.0
0.72000, 31.0
0.73000, 32.0
0.74000, 32.0
0.75000, 40.0
0.76000, 35.0
0.77000, 32.0
0.78000, 31.0
0.79000, 25.0
0.80000, 33.0
0.81000, 32.0
0.82000, 34.0
0.83000, 33.0
0.84000, 39.0
0.85000, 44.0
0.86000, 37.0
0.87000, 28.0
0.88000, 44.0
0.89000, 40.0
0.90000, 45.0
0.91000, 42.0
0.92000, 39.0
0.93000, 44.0
0.94000, 42.0
0.95000, 38.0
0.96000, 37.0
0.97000, 38.0
0.98000, 44.0
0.99000, 42.0
1.00000, 40.0
1.01000, 40.0
1.02000, 36.0
1.03000, 41.0
1.04000, 35.0
1.05000, 36.0
1.06000, 40.0
1.07000, 45.0
1.08000, 40.0
1.09000, 46.0
1.10000, 42.0
1.11000, 39.0
1.12000, 44.0
1.13000, 45.0
1.14000, 43.0
1.15000, 38.0
1.16000, 41.0
1.17000, 46.0
1.18000, 47.0
1.19000, 36.0
1.20000, 41.0
1.21000, 38.0
1.22000, 40.0
1.23000, 47.0
1.24000, 37.0
1.25000, 39.0
1.26000, 48.0
1.27000, 43.0
1.28000, 45.0
1.29000, 39.0
1.30000, 47.0
1.31000, 44.0
1.32000, 44.0
1.33000, 37.0
1.34000, 36.0
1.35000, 47.0
1.36000, 42.0
1.37000, 42.0
1.38000, 34.0
1.39000, 46.0
1.40000, 32.0
1.41000, 41.0
1.42000, 42.0
1.43000, 42.0
1.44000, 44.0
1.45000, 46.0
1.46000, 44.0
1.47000, 46.0
1.48000, 36.0
1.49000, 41.0
1.50000, 34.0
1.51000, 48.0
1.52000, 49.0
1.53000, 49.0
1.54000, 46.0
1.55000, 48.0
1.56000, 44.0
1.57000, 37.0
1.58000, 46.0
1.59000, 46.0
1.60000, 46.0
1.61000, 53.0
1.62000, 67.0
1.63000, 85.0
1.64000, 139.0
1.65000, 210.0
1.66000, 277.0
1.67000, 457.0
1.68000, 655.0
1.69000, 924.0
1.70000, 1236.0
1.71000, 1525.0
1.72000, 1847.0
1.73000, 2033.0
1.74000, 2092.0
1.75000, 2126.0
1.76000, 1931.0
1.77000, 1679.0
1.78000, 1423.0
1.79000, 1121.0
1.80000, 912.0
1.81000, 620.0
1.82000, 452.0
1.83000, 311.0
1.84000, 230.0
1.85000, 175.0
1.86000, 137.0
1.87000, 92.0
1.88000, 84.0
1.89000, 61.0
1.90000, 57.0
1.91000, 45.0
1.92000, 34.0
1.93000, 31.0
1.94000, 33.0
1.95000, 30.0
1.96000, 28.0
1.97000, 31.0
1.98000, 32.0
1.99000, 37.0
2.00000, 38.0
2.01000, 36.0
2.02000, 38.0
2.03000, 32.0
2.04000, 32.0
2.05000, 30.0
2.06000, 31.0
2.07000, 34.0
2.08000, 25.0
2.09000, 33.0
2.10000, 18.0
2.11000, 27.0
2.12000, 29.0
2.13000, 18.0
2.14000, 28.0
2.15000, 29.0
2.16000, 31.0
2.17000, 31.0
2.18000, 31.0
2.19000, 38.0
2.20000, 53.0
2.21000, 74.0
2.22000, 104.0
2.23000, 152.0
2.24000, 177.0
2.25000, 260.0
2.26000, 342.0
2.27000, 422.0
2.28000, 460.0
2.29000, 533.0
2.30000, 546.0
2.31000, 557.0
2.32000, 539.0
2.33000, 542.0
2.34000, 459.0
2.35000, 389.0
2.36000, 338.0
2.37000, 283.0
2.38000, 250.0
2.39000, 171.0
2.40000, 171.0
2.41000, 151.0
2.42000, 136.0
2.43000, 121.0
2.44000, 108.0
2.45000, 90.0
2.46000, 89.0
2.47000, 76.0
2.48000, 85.0
2.49000, 71.0
2.50000, 62.0
2.51000, 52.0
2.52000, 47.0
2.53000, 38.0
2.54000, 35.0
2.55000, 32.0
2.56000, 28.0
2.57000, 25.0
2.58000, 22.0
2.59000, 22.0
2.60000, 27.0
2.61000, 20.0
2.62000, 21.0
2.63000, 16.0
2.64000, 17.0
2.65000, 23.0
2.66000, 16.0
2.67000, 14.0
2.68000, 15.0
2.69000, 15.0
2.70000, 12.0
2.71000, 14.0
2.72000, 12.0
2.73000, 17.0
2.74000, 13.0
2.75000, 12.0
2.76000, 9.0
2.77000, 16.0
2.78000, 14.0
2.79000, 18.0
2.80000, 15.0
2.81000, 10.0
2.82000, 9.0
2.83000, 15.0
2.84000, 13.0
2.85000, 15.0
2.86000, 10.0
2.87000, 13.0
2.88000, 16.0
2.89000, 7.0
2.90000, 16.0
2.91000, 17.0
2.92000, 15.0
2.93000, 13.0
2.94000, 11.0
2.95000, 9.0
2.96000, 12.0
2.97000, 15.0
2.98000, 15.0
2.99000, 15.0
3.00000, 10.0
3.01000, 16.0
3.02000, 13.0
3.03000, 11.0
3.04000, 10.0
3.05000, 10.0
3.06000, 18.0
3.07000, 13.0
3.08000, 14.0
3.09000, 18.0
3.10000, 14.0
3.11000, 12.0
3.12000, 18.0
3.13000, 15.0
3.14000, 10.0
3.15000, 20.0
3.16000, 9.0
3.17000, 8.0
3.18000, 11.0
3.19000, 9.0
3.20000, 12.0
3.21000, 15.0
3.22000, 15.0
3.23000, 16.0
3.24000, 15.0
3.25000, 14.0
3.26000, 14.0
3.27000, 14.0
3.28000, 10.0
3.29000, 16.0
3.30000, 12.0
3.31000, 15.0
3.32000, 8.0
3.33000, 12.0
3.34000, 11.0
3.35000, 11.0
3.36000, 15.0
3.37000, 18.0
3.38000, 10.0
3.39000, 9.0
3.40000, 10.0
3.41000, 9.0
3.42000, 17.0
3.43000, 17.0
3.44000, 11.0
3.45000, 6.0
3.46000, 12.0
3.47000, 15.0
3.48000, 11.0
3.49000, 11.0
3.50000, 15.0
3.51000, 19.0
3.52000, 10.0
3.53000, 8.0
3.54000, 18.0
3.55000, 10.0
3.56000, 13.0
3.57000, 18.0
3.58000, 11.0
3.59000, 9.0
3.60000, 11.0
3.61000, 7.0
3.62000, 16.0
3.63000, 10.0
3.64000, 10.0
3.65000, 7.0
3.66000, 11.0
3.67000, 11.0
3.68000, 11.0
3.69000, 11.0
3.70000, 4.0
3.71000, 14.0
3.72000, 6.0
3.73000, 10.0
3.74000, 11.0
3.75000, 11.0
3.76000, 8.0
3.77000, 8.0
3.78000, 2.0
3.79000, 12.0
3.80000, 10.0
3.81000, 7.0
3.82000, 12.0
3.83000, 11.0
3.84000, 11.0
3.85000, 12.0
3.86000, 13.0
3.87000, 9.0
3.88000, 12.0
3.89000, 11.0
3.90000, 11.0
3.91000, 9.0
3.92000, 6.0
3.93000, 8.0
3.94000, 11.0
3.95000, 9.0
3.96000, 12.0
3.97000, 7.0
3.98000, 15.0
3.99000, 13.0
4.00000, 18.0
4.01000, 15.0
4.02000, 6.0
4.03000, 6.0
4.04000, 11.0
4.05000, 7.0
4.06000, 11.0
4.07000, 13.0
4.08000, 9.0
4.09000, 7.0
4.10000, 12.0
4.11000, 8.0
4.12000, 6.0
4.13000, 11.0
4.14000, 6.0
4.15000, 14.0
4.16000, 12.0
4.17000, 15.0
4.18000, 9.0
4.19000, 14.0
4.20000, 11.0
4.21000, 10.0
4.22000, 10.0
4.23000, 9.0
4.24000, 7.0
4.25000, 10.0
4.26000, 8.0
4.27000, 9.0
4.28000, 8.0
4.29000, 10.0
4.30000, 13.0
4.31000, 7.0
4.32000, 5.0
4.33000, 2.0
4.34000, 6.0
4.35000, 6.0
4.36000, 7.0
4.37000, 7.0
4.38000, 6.0
4.39000, 5.0
4.40000, 8.0
4.41000, 12.0
4.42000, 8.0
4.43000, 6.0
4.44000, 10.0
4.45000, 12.0
4.46000, 10.0
4.47000, 8.0
4.48000, 12.0
4.49000, 7.0
4.50000, 9.0
4.51000, 11.0
4.52000, 12.0
4.53000, 5.0
4.54000, 9.0
4.55000, 13.0
4.56000, 5.0
4.57000, 6.0
4.58000, 9.0
4.59000, 9.0
4.60000, 10.0
4.61000, 7.0
4.62000, 9.0
4.63000, 4.0
4.64000, 12.0
4.65000, 8.0
4.66000, 8.0
4.67000, 7.0
4.68000, 6.0
4.69000, 5.0
4.70000, 6.0
4.71000, 7.0
4.72000, 6.0
4.73000, 7.0
4.74000, 6.0
4.75000, 14.0
4.76000, 4.0
4.77000, 5.0
4.78000, 7.0
4.79000, 8.0
4.80000, 3.0
4.81000, 11.0
4.82000, 14.0
4.83000, 3.0
4.84000, 6.0
4.85000, 8.0
4.86000, 8.0
4.87000, 4.0
4.88000, 4.0
4.89000, 9.0
4.90000, 7.0
4.91000, 7.0
4.92000, 8.0
4.93000, 8.0
4.94000, 8.0
4.95000, 4.0
4.96000, 4.0
4.97000, 4.0
4.98000, 4.0
4.99000, 8.0
5.00000, 9.0
5.01000, 8.0
5.02000, 9.0
5.03000, 6.0
5.04000, 5.0
5.05000, 7.0
5.06000, 6.0
5.07000, 5.0
5.08000, 4.0
5.09000, 6.0
5.10000, 7.0
5.11000, 4.0
5.12000, 4.0
5.13000, 9.0
5.14000, 3.0
5.15000, 5.0
5.16000, 6.0
5.17000, 10.0
5.18000, 6.0
5.19000, 3.0
5.20000, 4.0
5.21000, 9.0
5.22000, 5.0
5.23000, 7.0
5.24000, 7.0
5.25000, 4.0
5.26000, 10.0
5.27000, 5.0
5.28000, 3.0
5.29000, 5.0
5.30000, 7.0
5.31000, 7.0
5.32000, 5.0
5.33000, 6.0
5.34000, 5.0
5.35000, 6.0
5.36000, 3.0
5.37000, 6.0
5.38000, 6.0
5.39000, 6.0
5.40000, 9.0
5.41000, 6.0
5.42000, 5.0
5.43000, 7.0
5.44000, 3.0
5.45000, 7.0
5.46000, 4.0
5.47000, 6.0
5.48000, 5.0
5.49000, 4.0
5.50000, 9.0
5.51000, 6.0
5.52000, 5.0
5.53000, 7.0
5.54000, 6.0
5.55000, 5.0
5.56000, 6.0
5.57000, 3.0
5.58000, 5.0
5.59000, 5.0
5.60000, 4.0
5.61000, 5.0
5.62000, 8.0
5.63000, 6.0
5.64000, 3.0
5.65000, 8.0
5.66000, 4.0
5.67000, 8.0
5.68000, 2.0
5.69000, 3.0
5.70000, 3.0
5.71000, 7.0
5.72000, 3.0
5.73000, 4.0
5.74000, 5.0
5.75000, 6.0
5.76000, 6.0
5.77000, 3.0
5.78000, 4.0
5.79000, 6.0
5.80000, 4.0
5.81000, 6.0
5.82000, 5.0
5.83000, 8.0
5.84000, 4.0
5.85000, 6.0
5.86000, 3.0
5.87000, 7.0
5.88000, 3.0
5.89000, 6.0
5.90000, 8.0
5.91000, 4.0
5.92000, 5.0
5.93000, 6.0
5.94000, 4.0
5.95000, 9.0
5.96000, 6.0
5.97000, 4.0
5.98000, 9.0
5.99000, 4.0
6.00000, 5.0
6.01000, 6.0
6.02000, 2.0
6.03000, 6.0
6.04000, 3.0
6.05000, 3.0
6.06000, 5.0
6.07000, 6.0
6.08000, 4.0
6.09000, 6.0
6.10000, 7.0
6.11000, 3.0
6.12000, 4.0
6.13000, 3.0
6.14000, 4.0
6.15000, 6.0
6.16000, 5.0
6.17000, 2.0
6.18000, 6.0
6.19000, 4.0
6.20000, 3.0
6.21000, 2.0
6.22000, 7.0
6.23000, 5.0
6.24000, 7.0
6.25000, 4.0
6.26000, 4.0
6.27000, 3.0
6.28000, 6.0
6.29000, 4.0
6.30000, 3.0
6.31000, 4.0
6.32000, 5.0
6.33000, 3.0
6.34000, 2.0
6.35000, 5.0
6.36000, 3.0
6.37000, 3.0
6.38000, 2.0
6.39000, 4.0
6.40000, 7.0
6.41000, 2.0
6.42000, 4.0
6.43000, 4.0
6.44000, 4.0
6.45000, 4.0
6.46000, 6.0
6.47000, 5.0
6.48000, 5.0
6.49000, 6.0
6.50000, 8.0
6.51000, 6.0
6.52000, 8.0
6.53000, 4.0
6.54000, 4.0
6.55000, 2.0
6.56000, 6.0
6.57000, 4.0
6.58000, 7.0
6.59000, 4.0
6.60000, 5.0
6.61000, 5.0
6.62000, 5.0
6.63000, 2.0
6.64000, 1.0
6.65000, 5.0
6.66000, 2.0
6.67000, 3.0
6.68000, 4.0
6.69000, 4.0
6.70000, 4.0
6.71000, 2.0
6.72000, 1.0
6.73000, 3.0
6.74000, 6.0
6.75000, 1.0
6.76000, 4.0
6.77000, 3.0
6.78000, 2.0
6.79000, 2.0
6.80000, 3.0
6.81000, 3.0
6.82000, 4.0
6.83000, 4.0
6.84000, 3.0
6.85000, 5.0
6.86000, 4.0
6.87000, 4.0
6.88000, 3.0
6.89000, 8.0
6.90000, 5.0
6.91000, 4.0
6.92000, 3.0
6.93000, 2.0
6.94000, 3.0
6.95000, 4.0
6.96000, 2.0
6.97000, 2.0
6.98000, 2.0
6.99000, 4.0
7.00000, 2.0
7.01000, 5.0
7.02000, 3.0
7.03000, 4.0
7.04000, 7.0
7.05000, 1.0
7.06000, 4.0
7.07000, 4.0
7.08000, 8.0
7.09000, 2.0
7.10000, 1.0
7.11000, 5.0
7.12000, 3.0
7.13000, 2.0
7.14000, 4.0
7.15000, 1.0
7.16000, 4.0
7.17000, 3.0
7.18000, 4.0
7.19000, 2.0
7.20000, 2.0
7.21000, 5.0
7.22000, 5.0
7.23000, 2.0
7.24000, 4.0
7.25000, 4.0
7.26000, 2.0
7.27000, 1.0
7.28000, 3.0
7.29000, 2.0
7.30000, 4.0
7.31000, 2.0
7.32000, 4.0
7.33000, 2.0
7.34000, 1.0
7.35000, 3.0
7.36000, 3.0
7.37000, 3.0
7.38000, 4.0
7.39000, 1.0
7.40000, 3.0
7.41000, 2.0
7.42000, 2.0
7.43000, 1.0
7.44000, 4.0
7.45000, 4.0
7.46000, 1.0
7.47000, 4.0
7.48000, 2.0
7.49000, 1.0
7.50000, 5.0
7.51000, 3.0
7.52000, 4.0
7.53000, 2.0
7.54000, 2.0
7.55000, 4.0
7.56000, 2.0
7.57000, 3.0
7.58000, 2.0
7.59000, 1.0
7.60000, 3.0
7.61000, 1.0
7.62000, 5.0
7.63000, 3.0
7.64000, 1.0
7.65000, 1.0
7.66000, 3.0
7.67000, 3.0
7.68000, 3.0
7.69000, 1.0
7.70000, 1.0
7.71000, 4.0
7.72000, 1.0
7.73000, 2.0
7.74000, 1.0
7.75000, 4.0
7.76000, 1.0
7.77000, 1.0
7.78000, 1.0
7.79000, 2.0
7.80000, 1.0
7.81000, 3.0
7.82000, 1.0
7.83000, 2.0
7.84000, 4.0
7.85000, 3.0
7.86000, 3.0
7.87000, 1.0
7.88000, 2.0
7.89000, 1.0
7.90000, 2.0
7.91000, 5.0
7.92000, 1.0
7.93000, 5.0
7.94000, 1.0
7.95000, 4.0
7.96000, 2.0
7.97000, 3.0
7.98000, 2.0
7.99000, 4.0
8.00000, 3.0
8.01000, 1.0
8.02000, 3.0
8.03000, 3.0
8.04000, 2.0
8.05000, 0.0
8.06000, 1.0
8.07000, 2.0
8.08000, 2.0
8.09000, 2.0
8.10000, 1.0
8.11000, 3.0
8.12000, 4.0
8.13000, 2.0
8.14000, 2.0
8.15000, 3.0
8.16000, 3.0
8.17000, 1.0
8.18000, 0.0
8.19000, 2.0
8.20000, 2.0
8.21000, 2.0
8.22000, 0.0
8.23000, 2.0
8.24000, 1.0
8.25000, 2.0
8.26000, 3.0
8.27000, 2.0
8.28000, 1.0
8.29000, 3.0
8.30000, 1.0
8.31000, 1.0
8.32000, 4.0
8.33000, 3.0
8.34000, 2.0
8.35000, 0.0
8.36000, 1.0
8.37000, 4.0
8.38000, 3.0
8.39000, 0.0
8.40000, 2.0
8.41000, 1.0
8.42000, 3.0
8.43000, 1.0
8.44000, 0.0
8.45000, 3.0
8.46000, 3.0
8.47000, 3.0
8.48000, 2.0
8.49000, 1.0
8.50000, 1.0
8.51000, 0.0
8.52000, 0.0
8.53000, 1.0
8.54000, 2.0
8.55000, 4.0
8.56000, 2.0
8.57000, 3.0
8.58000, 0.0
8.59000, 2.0
8.60000, 0.0
8.61000, 2.0
8.62000, 2.0
8.63000, 2.0
8.64000, 1.0
8.65000, 1.0
8.66000, 0.0
8.67000, 1.0
8.68000, 3.0
8.69000, 0.0
8.70000, 0.0
8.71000, 2.0
8.72000, 2.0
8.73000, 1.0
8.74000, 0.0
8.75000, 1.0
8.76000, 2.0
8.77000, 0.0
8.78000, 1.0
8.79000, 2.0
8.80000, 3.0
8.81000, 1.0
8.82000, 0.0
8.83000, 5.0
8.84000, 0.0
8.85000, 0.0
8.86000, 3.0
8.87000, 1.0
8.88000, 0.0
8.89000, 0.0
8.90000, 0.0
8.91000, 0.0
8.92000, 2.0
8.93000, 3.0
8.94000, 0.0
8.95000, 0.0
8.96000, 0.0
8.97000, 2.0
8.98000, 1.0
8.99000, 2.0
9.00000, 2.0
9.01000, 0.0
9.02000, 0.0
9.03000, 1.0
9.04000, 0.0
9.05000, 3.0
9.06000, 1.0
9.07000, 2.0
9.08000, 0.0
9.09000, 1.0
9.10000, 0.0
9.11000, 0.0
9.12000, 1.0
9.13000, 1.0
9.14000, 0.0
9.15000, 2.0
9.16000, 1.0
9.17000, 3.0
9.18000, 2.0
9.19000, 3.0
9.20000, 1.0
9.21000, 1.0
9.22000, 4.0
9.23000, 0.0
9.24000, 0.0
9.25000, 0.0
9.26000, 0.0
9.27000, 1.0
9.28000, 0.0
9.29000, 2.0
9.30000, 1.0
9.31000, 0.0
9.32000, 1.0
9.33000, 2.0
9.34000, 1.0
9.35000, 2.0
9.36000, 3.0
9.37000, 1.0
9.38000, 0.0
9.39000, 0.0
9.40000, 1.0
9.41000, 1.0
9.42000, 1.0
9.43000, 1.0
9.44000, 1.0
9.45000, 0.0
9.46000, 1.0
9.47000, 0.0
9.48000, 1.0
9.49000, 0.0
9.50000, 1.0
9.51000, 0.0
9.52000, 4.0
9.53000, 0.0
9.54000, 1.0
9.55000, 0.0
9.56000, 0.0
9.57000, 1.0
9.58000, 0.0
9.59000, 1.0
9.60000, 1.0
9.61000, 0.0
9.62000, 0.0
9.63000, 1.0
9.64000, 0.0
9.65000, 0.0
9.66000, 1.0
9.67000, 1.0
9.68000, 2.0
9.69000, 0.0
9.70000, 1.0
9.71000, 2.0
9.72000, 0.0
9.73000, 1.0
9.74000, 0.0
9.75000, 1.0
9.76000, 1.0
9.77000, 0.0
9.78000, 3.0
9.79000, 1.0
9.80000, 0.0
9.81000, 0.0
9.82000, 0.0
9.83000, 1.0
9.84000, 0.0
9.85000, 0.0
9.86000, 1.0
9.87000, 0.0
9.88000, 1.0
9.89000, 0.0
9.90000, 1.0
9.91000, 0.0
9.92000, 1.0
9.93000, 1.0
9.94000, 0.0
9.95000, 3.0
9.96000, 0.0
9.97000, 0.0
9.98000, 0.0
9.99000, 0.0
10.00000, 0.0
10.01000, 0.0
10.02000, 0.0
10.03000, 0.0
10.04000, 0.0
10.05000, 0.0
10.06000, 0.0
10.07000, 1.0
10.08000, 0.0
10.09000, 0.0
10.10000, 0.0
10.11000, 1.0
10.12000, 0.0
10.13000, 0.0
10.13500, 0.0
#ENDOFDATA   :